ACC_X,ACC_Y,ACC_Z,BVP,EDA,TEMP,label,subject
-58.0,-35.0,-36.0,83.95,0.339268,32.66,2,S14
-56.0,8.0,31.0,-2.92,0.313683,31.71,4,S14
-46.0,45.0,9.0,-5.81,0.33083,30.87,4,S3
-49.0,-35.0,-35.0,43.55,0.337989,32.68,2,S14
-53.0,-34.0,-16.0,25.78,0.281702,32.25,1,S14
25.0,-59.0,13.0,61.81,0.642214,34.03,2,S2
-56.0,8.0,31.0,5.31,0.311125,31.59,4,S14
-37.0,-38.0,-37.0,-31.01,0.290656,32.16,1,S14
50.0,23.0,35.0,-23.59,0.113024,35.87,1,S2
-37.0,-52.0,6.0,-3.54,2.253874,32.79,1,S3
-57.0,-26.0,17.0,286.5,1.225314,33.07,1,S3
-32.0,-48.0,26.0,5.27,0.327755,33.15,2,S14
-29.0,57.0,10.0,2.98,1.511233,31.87,2,S3
-64.0,-3.0,11.0,4.22,0.334151,33.18,2,S14
-31.0,-7.0,-56.0,-7.14,0.123067,33.05,1,S4
-48.0,37.0,-8.0,6.53,4.382512,32.37,2,S3
-59.0,-7.0,26.0,5.39,4.435043,32.71,1,S3
-17.0,60.0,10.0,-168.18,2.262214,32.23,2,S4
-56.0,8.0,32.0,13.12,0.316242,31.71,4,S14
-44.0,19.0,43.0,76.9,0.175513,32.75,3,S4
-51.0,19.0,35.0,-39.91,0.179351,32.77,3,S4
-53.0,5.0,36.0,-35.01,0.317521,32.41,4,S14
15.0,-59.0,14.0,0.57,0.583273,33.84,2,S2
-47.0,-9.0,43.0,8.35,6.106515,32.63,1,S3
-18.0,-8.0,-61.0,35.64,0.121788,33.07,1,S4
-26.0,61.0,11.0,-63.97,2.078013,32.23,2,S4
-56.0,7.0,31.0,-3.46,0.314962,31.73,4,S14
-65.0,-1.0,2.0,-56.95,0.277864,32.27,1,S14
-61.0,-9.0,35.0,-12.07,0.365424,30.71,3,S3
-30.0,-55.0,10.0,20.47,0.263792,32.18,1,S14
21.0,-59.0,10.0,-19.91,0.188305,31.45,4,S4
-17.0,61.0,10.0,129.87,2.099238,32.34,2,S4
-31.0,-55.0,12.0,-24.79,0.272747,32.13,1,S14
-56.0,7.0,32.0,-4.99,0.308566,31.71,4,S14
-57.0,7.0,31.0,-14.97,0.309845,31.61,4,S14
57.0,23.0,17.0,25.99,0.188623,33.73,4,S2
-63.0,2.0,17.0,-6.3,0.18063,31.41,4,S4
-56.0,2.0,35.0,45.96,0.194701,31.39,4,S4
4.0,-55.0,28.0,13.09,0.392331,30.71,3,S3
37.0,38.0,35.0,-36.79,0.653815,35.75,1,S2
-46.0,-45.0,12.0,-22.3,0.30217,33.07,2,S14
57.0,23.0,17.0,-13.96,0.216812,33.63,4,S2
-42.0,-44.0,25.0,-77.71,2.172151,32.33,2,S4
-54.0,7.0,36.0,17.11,0.321359,32.39,4,S14
-49.0,-38.0,-21.0,34.62,0.288098,32.09,1,S14
-56.0,8.0,31.0,4.05,0.312404,31.63,4,S14
16.0,-58.0,12.0,61.95,0.601211,33.95,2,S2
-65.0,-2.0,5.0,39.9,0.181909,31.47,4,S4
-57.0,-10.0,-30.0,8.31,4.577974,32.34,2,S3
49.0,13.0,-38.0,25.19,0.124556,35.65,1,S2
62.0,0.0,11.0,17.32,0.238594,33.99,4,S2
-33.0,-55.0,1.0,-8.23,0.275305,32.21,1,S14
-23.0,59.0,6.0,-131.11,2.992407,32.61,2,S4
57.0,23.0,16.0,-3.74,0.206561,33.66,4,S2
62.0,1.0,12.0,-17.48,0.202717,34.15,4,S2
-38.0,-7.0,-53.0,-66.0,0.306008,32.13,1,S14
-66.0,-1.0,2.0,16.23,0.277864,32.27,1,S14
57.0,23.0,17.0,-38.3,0.245001,33.61,4,S2
-37.0,31.0,-7.0,-1.02,0.339799,32.73,2,S3
62.0,0.0,12.0,-13.43,0.16684,34.55,4,S2
-54.0,-35.0,-4.0,20.85,0.294494,32.16,1,S14
52.0,29.0,22.0,6.98,0.507674,35.77,1,S2
-56.0,8.0,32.0,0.56,0.320079,31.73,4,S14
56.0,18.0,23.0,9.5,0.173247,35.87,1,S2
-46.0,-6.0,-46.0,-2.92,4.125267,32.37,2,S3
-35.0,-5.0,-54.0,27.98,0.114113,33.11,1,S4
-46.0,45.0,9.0,-1.88,0.338518,30.91,4,S3
-19.0,60.0,13.0,-8.99,2.177788,32.25,2,S4
-51.0,19.0,34.0,53.77,0.193422,32.77,3,S4
-31.0,-55.0,8.0,2.27,0.268909,32.21,1,S14
-32.0,55.0,11.0,2.53,3.496251,32.15,2,S3
-50.0,-33.0,-26.0,-4.76,0.289377,32.18,1,S14
62.0,6.0,-10.0,-15.76,0.129681,35.89,1,S2
-63.0,1.0,17.0,15.44,0.183188,31.41,4,S4
-56.0,7.0,32.0,10.96,0.316242,31.71,4,S14
-42.0,-2.0,48.0,1.01,0.389768,33.15,1,S3
-32.0,-43.0,-35.0,19.02,0.282981,32.18,1,S14
-45.0,45.0,10.0,0.85,0.339799,30.93,4,S3
-23.0,-9.0,-58.0,5.11,0.116671,33.03,1,S4
-40.0,-41.0,-26.0,25.3,0.285539,32.09,1,S14
46.0,26.0,34.0,-37.88,0.758884,35.71,1,S2
14.0,-58.0,14.0,7.19,0.9177,33.5,2,S2
-62.0,2.0,19.0,-27.92,0.197259,31.39,4,S4
-30.0,57.0,-4.0,22.18,1.956491,32.71,2,S4
-17.0,62.0,15.0,-4.52,2.328211,32.37,2,S4
7.0,-59.0,18.0,153.7,0.184468,31.47,4,S4
-42.0,-1.0,48.0,6.54,0.370549,33.15,1,S3
-20.0,-18.0,58.0,-63.06,2.13728,32.81,1,S3
54.0,23.0,22.0,17.98,0.159152,35.91,1,S2
-31.0,-8.0,-56.0,24.06,0.139696,32.91,1,S4
-33.0,55.0,9.0,1.06,3.068312,32.13,2,S3
-43.0,-2.0,48.0,-8.83,0.384643,33.11,1,S3
-29.0,-12.0,-57.0,-7.06,0.124346,33.11,1,S4
21.0,-58.0,15.0,54.65,0.590961,33.95,2,S2
-18.0,-7.0,-61.0,-24.5,0.120509,33.07,1,S4
14.0,-60.0,13.0,-45.15,0.726782,34.07,2,S2
-46.0,-38.0,17.0,-60.29,0.33671,33.21,2,S14
-23.0,-11.0,-59.0,19.92,0.125626,32.95,1,S4
-20.0,-4.0,-61.0,-11.74,0.120509,33.03,1,S4
-31.0,56.0,10.0,3.55,3.420657,32.15,2,S3
-37.0,-8.0,-53.0,25.79,0.306008,32.18,1,S14
-58.0,-12.0,-32.0,50.4,0.974089,33.29,1,S3
-24.0,-59.0,-8.0,27.5,0.270188,32.27,1,S14
-20.0,61.0,9.0,-64.56,2.459966,32.43,2,S4
-29.0,57.0,9.0,5.49,1.622702,31.91,2,S3
-32.0,56.0,10.0,-4.88,3.196438,32.13,2,S3
19.0,8.0,63.0,-99.07,0.385948,35.91,1,S2
-64.0,14.0,-6.0,11.27,0.460237,30.55,4,S3
-56.0,8.0,32.0,-6.07,0.314962,31.73,4,S14
15.0,-59.0,14.0,203.79,0.98568,33.29,2,S2
-46.0,45.0,10.0,1.67,0.339799,30.91,4,S3
-62.0,-20.0,1.0,4.38,1.001094,33.25,1,S3
-50.0,-39.0,-17.0,-55.82,0.289377,32.15,1,S14
-23.0,-48.0,-36.0,19.89,0.297053,32.13,1,S14
-26.0,58.0,12.0,-1.78,3.1785,32.45,2,S3
-20.0,-6.0,-61.0,17.66,0.117951,33.05,1,S4
-21.0,-10.0,-59.0,4.09,0.126905,32.95,1,S4
-27.0,54.0,-13.0,21.61,2.449732,32.5,2,S4
-33.0,-8.0,-55.0,5.87,0.137138,32.91,1,S4
47.0,24.0,-3.0,-11.43,0.095085,35.66,1,S2
-18.0,-7.0,-62.0,-27.22,0.11923,33.07,1,S4
-34.0,56.0,5.0,-6.64,4.084267,32.41,2,S3
0.0,-56.0,26.0,-6.2,0.439737,30.87,3,S3
58.0,16.0,20.0,17.55,0.219374,35.75,1,S2
12.0,-56.0,25.0,-12.71,0.599963,33.23,1,S3
-64.0,13.0,-6.0,-8.34,0.45255,30.65,4,S3
-64.0,-2.0,11.0,-10.04,0.332872,33.21,2,S14
-61.0,-4.0,21.0,9.44,1.357283,32.83,1,S3
62.0,0.0,12.0,-22.37,0.187341,34.25,4,S2
-60.0,-24.0,-8.0,0.21,1.092063,33.18,1,S3
-10.0,-54.0,31.0,-31.89,0.362862,30.69,3,S3
-42.0,-2.0,48.0,1.62,0.379518,33.15,1,S3
-54.0,-17.0,15.0,49.85,5.196489,32.59,1,S3
51.0,30.0,23.0,13.81,0.106617,35.89,1,S2
-36.0,-40.0,34.0,12.39,0.345664,32.71,2,S14
39.0,14.0,-47.0,-12.21,0.113024,35.95,1,S2
-57.0,-31.0,9.0,-9.76,1.584264,32.87,1,S3
-34.0,-44.0,-42.0,2.49,0.35334,32.81,2,S14
20.0,-58.0,13.0,1.5,0.64862,33.77,2,S2
18.0,-58.0,19.0,-21.58,0.738314,33.63,2,S2
-24.0,-59.0,-7.0,23.3,0.268909,32.23,1,S14
-4.0,2.0,64.0,0.8,1.192073,35.83,1,S2
17.0,-58.0,13.0,-82.6,0.730626,33.59,2,S2
-63.0,1.0,16.0,10.52,0.18063,31.43,4,S4
-48.0,-39.0,-29.0,-3.99,0.33671,32.68,2,S14
-44.0,-1.0,47.0,6.7,0.365424,30.99,3,S3
-54.0,-36.0,-6.0,17.15,2.037342,32.84,1,S3
-63.0,2.0,16.0,18.83,0.184468,31.43,4,S4
-65.0,0.0,-4.0,8.85,0.14993,32.75,4,S4
-37.0,-7.0,-52.0,27.71,0.314962,32.09,1,S14
-46.0,45.0,10.0,1.28,0.34108,30.93,4,S3
14.0,-59.0,14.0,3.89,1.077935,33.37,2,S2
49.0,13.0,-37.0,11.27,0.127119,35.71,1,S2
-35.0,55.0,10.0,2.18,3.548783,32.15,2,S3
12.0,-55.0,28.0,28.81,0.384643,30.89,3,S3
-34.0,-55.0,-3.0,33.62,0.289377,32.16,1,S14
-17.0,61.0,10.0,156.96,2.172672,32.23,2,S4
-55.0,-36.0,19.0,-34.64,0.343106,32.75,2,S14
-24.0,-59.0,-8.0,0.75,0.270188,32.27,1,S14
-37.0,-52.0,-11.0,25.05,0.308566,32.15,1,S14
-57.0,-4.0,30.0,-24.31,2.378156,32.68,1,S3
-64.0,14.0,-5.0,6.42,0.442299,30.65,4,S3
-17.0,61.0,10.0,-118.15,3.061483,32.45,2,S4
-20.0,59.0,11.0,0.37,0.320079,31.99,3,S14
-60.0,-25.0,-5.0,4.64,1.048501,33.25,1,S3
-46.0,44.0,11.0,-0.92,0.342362,30.93,4,S3
-26.0,61.0,11.0,-3.28,1.910984,31.95,2,S3
-32.0,-54.0,12.0,24.51,0.268909,32.11,1,S14
-14.0,53.0,13.0,-9.79,4.112454,32.37,2,S3
58.0,22.0,16.0,-11.17,0.323162,33.71,4,S2
-65.0,-2.0,-3.0,19.09,0.157605,32.84,4,S4
-22.0,-8.0,-59.0,-59.73,0.117951,33.03,1,S4
-54.0,4.0,36.0,9.98,0.312404,32.53,4,S14
-64.0,14.0,-5.0,-15.99,0.441018,30.65,4,S3
-29.0,57.0,10.0,-0.08,2.541277,32.05,2,S3
57.0,26.0,-8.0,17.39,0.096367,35.63,1,S2
-63.0,2.0,17.0,-4.99,0.197259,31.39,4,S4
-19.0,-6.0,-61.0,-35.54,0.11923,33.09,1,S4
-49.0,-36.0,-23.0,-5.52,0.289377,32.21,1,S14
-56.0,-30.0,13.0,7.19,0.367987,33.25,1,S3
56.0,23.0,17.0,8.95,0.18606,33.79,4,S2
72.0,12.0,15.0,12.98,0.366728,35.89,1,S2
-53.0,4.0,36.0,11.56,0.316242,32.53,4,S14
-33.0,-54.0,8.0,22.85,0.270188,32.25,1,S14
63.0,0.0,17.0,95.21,0.133525,35.53,1,S2
-53.0,-21.0,12.0,67.96,0.348223,32.81,2,S14
16.0,-58.0,18.0,114.94,0.684498,33.77,2,S2
-35.0,-10.0,-53.0,24.95,0.152488,32.89,1,S4
-64.0,13.0,-5.0,12.61,0.458956,30.55,4,S3
15.0,-59.0,16.0,-21.06,0.822881,33.57,2,S2
-35.0,-12.0,-52.0,-29.16,0.105159,33.09,1,S4
16.0,-60.0,16.0,5.48,1.024119,33.07,2,S2
16.0,-59.0,13.0,36.79,1.045902,33.11,2,S2
-45.0,46.0,9.0,-0.26,0.329549,30.85,4,S3
-55.0,-31.0,15.0,-1.23,0.364143,33.23,1,S3
-60.0,-15.0,12.0,-102.66,4.711224,32.65,1,S3
-56.0,8.0,32.0,18.55,0.316242,31.73,4,S14
-35.0,-6.0,-55.0,-42.8,0.114113,33.11,1,S4
41.0,14.0,-46.0,-22.23,0.114305,35.91,1,S2
-53.0,-35.0,16.0,11.27,1.869984,32.83,1,S3
-46.0,44.0,11.0,-0.99,0.344924,30.93,4,S3
-18.0,-8.0,-61.0,-32.46,0.120509,33.03,1,S4
-17.0,62.0,8.0,-26.03,0.321359,31.97,3,S14
-21.0,-12.0,-59.0,0.73,0.126905,32.95,1,S4
-55.0,8.0,33.0,12.64,0.320079,31.69,4,S14
-44.0,18.0,43.0,10.03,0.172955,32.75,3,S4
-34.0,-7.0,-52.0,-67.49,0.116671,33.07,1,S4
-56.0,-4.0,33.0,3.05,0.383362,30.93,3,S3
-21.0,60.0,-1.0,-49.88,2.874418,32.63,2,S4
55.0,25.0,17.0,6.76,0.529457,35.81,1,S2
-57.0,10.0,-38.0,-18.62,5.307007,32.27,2,S3
-32.0,-8.0,-56.0,18.99,0.139696,32.89,1,S4
-65.0,-2.0,-2.0,10.29,0.158884,32.84,4,S4
-65.0,0.0,-6.0,33.91,0.144813,32.73,4,S4
-44.0,-39.0,-26.0,-49.86,0.288098,32.15,1,S14
-61.0,-21.0,-10.0,-17.49,0.756276,33.47,1,S3
-33.0,-48.0,26.0,32.52,0.330313,33.18,2,S14
-32.0,-47.0,28.0,18.82,0.331593,33.16,2,S14
49.0,13.0,-38.0,-34.44,0.118149,35.65,1,S2
-34.0,-6.0,-54.0,-26.21,0.114113,33.09,1,S4
16.0,-59.0,16.0,4.12,1.021557,33.45,2,S2
-41.0,-46.0,1.0,8.16,0.341827,32.79,2,S14
-16.0,-8.0,-62.0,-56.5,0.11923,33.03,1,S4
53.0,27.0,20.0,-109.77,0.123275,35.89,1,S2
57.0,22.0,17.0,13.88,0.261658,33.66,4,S2
-65.0,-2.0,-7.0,-16.11,0.153767,32.75,4,S4
-19.0,-12.0,-60.0,45.18,0.126905,32.97,1,S4
-21.0,-11.0,-60.0,1.01,0.125626,33.0,1,S4
-65.0,-2.0,-2.0,-45.58,0.156326,32.87,4,S4
22.0,-52.0,27.0,16.61,0.573056,33.15,1,S3
-56.0,8.0,31.0,9.87,0.314962,31.69,4,S14
61.0,-1.0,-11.0,11.76,0.184779,34.34,3,S2
-28.0,58.0,11.0,-3.24,4.245418,32.41,2,S3
-61.0,-16.0,-12.0,-25.07,6.274359,32.65,1,S3
-46.0,-4.0,43.0,-1.69,0.396174,30.85,3,S3
-46.0,0.0,45.0,15.3,0.370549,30.97,3,S3
57.0,22.0,18.0,-6.35,0.312912,33.68,4,S2
-65.0,0.0,-4.0,-1.78,0.155047,32.77,4,S4
-35.0,-53.0,6.0,44.42,0.257396,32.23,1,S14
-53.0,4.0,36.0,-2.4,0.320079,32.49,4,S14
-19.0,60.0,12.0,-7.41,0.320079,31.93,3,S14
-65.0,-2.0,-3.0,12.18,0.14993,32.95,4,S4
-53.0,-6.0,36.0,17.12,2.716809,32.79,1,S3
-54.0,4.0,36.0,-15.62,0.316242,32.53,4,S14
55.0,26.0,20.0,-10.23,0.442326,35.79,1,S2
-64.0,13.0,-6.0,2.86,0.467925,30.53,4,S3
-61.0,-19.0,-15.0,19.62,0.886964,33.23,1,S3
-56.0,8.0,31.0,5.44,0.312404,31.63,4,S14
-53.0,4.0,36.0,5.55,0.3188,32.49,4,S14
-37.0,-37.0,-39.0,-25.9,0.289377,32.16,1,S14
-33.0,-6.0,-55.0,-7.74,0.112834,33.11,1,S4
-26.0,59.0,1.0,-7.6,2.330769,32.47,2,S4
-65.0,0.0,-6.0,2.32,0.152488,32.75,4,S4
-62.0,-4.0,20.0,3.54,1.34447,32.83,1,S3
-16.0,62.0,7.0,-7.17,0.321359,31.95,3,S14
-65.0,0.0,8.0,11.36,0.194701,31.43,4,S4
-19.0,60.0,7.0,145.87,2.149126,32.33,2,S4
-34.0,-41.0,-38.0,3.2,0.286819,32.18,1,S14
57.0,23.0,17.0,-14.02,0.236032,33.65,4,S2
-65.0,0.0,-4.0,3.38,0.153767,32.77,4,S4
-43.0,-1.0,48.0,-23.49,0.406424,33.13,1,S3
-18.0,60.0,12.0,2.19,0.317521,31.97,3,S14
-73.0,-8.0,-55.0,9.72,0.357737,32.65,2,S3
60.0,0.0,-20.0,4.31,0.130963,34.09,3,S2
-40.0,52.0,5.0,25.86,4.905975,32.27,2,S3
16.0,-58.0,13.0,-17.78,0.870291,33.55,2,S2
-23.0,-11.0,-60.0,18.51,0.128184,32.97,1,S4
-44.0,18.0,43.0,65.61,0.174234,32.75,3,S4
-28.0,57.0,9.0,9.62,2.032217,31.99,2,S3
-21.0,58.0,14.0,-38.16,2.08133,32.27,2,S4
51.0,30.0,21.0,152.27,0.703787,35.75,1,S2
-50.0,-31.0,37.0,-76.19,0.349502,32.87,2,S14
-56.0,-34.0,-2.0,9.19,3.109312,32.83,1,S3
54.0,23.0,22.0,-13.25,0.154027,35.89,1,S2
-61.0,-3.0,22.0,-6.35,1.339345,32.83,1,S3
-32.0,55.0,8.0,-0.54,3.090094,32.13,2,S3
-48.0,-39.0,-20.0,-38.72,0.281702,32.09,1,S14
-47.0,20.0,39.0,-17.25,0.181909,32.79,3,S4
-51.0,-37.0,-17.0,20.52,0.308566,32.21,1,S14
-61.0,-4.0,22.0,3.58,0.356455,30.95,3,S3
-33.0,-40.0,-38.0,-46.91,0.286819,32.16,1,S14
-26.0,-45.0,-30.0,4.94,0.207493,32.73,1,S4
-52.0,0.0,38.0,0.27,0.487143,33.18,1,S3
-65.0,-3.0,-3.0,19.01,0.155047,32.95,4,S4
-18.0,60.0,12.0,0.52,0.320079,31.97,3,S14
-33.0,-43.0,28.0,22.81,0.345664,32.91,2,S14
62.0,1.0,12.0,11.67,0.177091,34.31,4,S2
-61.0,-25.0,-8.0,5.13,1.111282,33.15,1,S3
-51.0,-38.0,-14.0,-2.37,0.309845,32.11,1,S14
-18.0,61.0,12.0,12.04,0.3188,31.95,3,S14
17.0,-59.0,14.0,-0.26,1.231695,32.61,2,S2
56.0,-6.0,-17.0,107.87,0.360321,35.89,1,S2
-13.0,62.0,12.0,-185.76,2.080051,32.34,2,S4
-66.0,0.0,-5.0,-10.23,0.157605,32.81,4,S4
62.0,0.0,12.0,5.16,0.188623,34.25,4,S2
17.0,-58.0,13.0,-0.99,0.952365,33.27,2,S2
16.0,-60.0,12.0,-0.39,1.175317,32.57,2,S2
14.0,12.0,55.0,-46.73,0.169403,35.91,1,S2
15.0,-59.0,14.0,20.5,1.038214,33.37,2,S2
-37.0,-7.0,-53.0,3.34,0.308566,32.15,1,S14
-54.0,-37.0,-6.0,27.36,2.020686,32.84,1,S3
-64.0,10.0,-8.0,4.97,0.467925,30.49,4,S3
-19.0,61.0,12.0,5.41,0.317521,31.99,3,S14
-27.0,61.0,7.0,3.3,2.5383,32.57,2,S4
-30.0,-11.0,-67.0,3.33,0.128184,32.93,1,S4
-32.0,-55.0,8.0,-1.34,0.26763,32.23,1,S14
-49.0,-1.0,42.0,-3.13,0.383362,30.83,3,S3
-23.0,-48.0,-36.0,14.52,0.297053,32.16,1,S14
-50.0,-4.0,40.0,2.04,0.387206,30.77,3,S3
15.0,-59.0,13.0,3.48,1.062559,33.03,2,S2
-26.0,60.0,4.0,14.15,2.655984,32.66,2,S4
-44.0,-28.0,-39.0,-19.72,0.291936,32.15,1,S14
-48.0,19.0,39.0,-76.11,0.176793,32.77,3,S4
-49.0,2.0,42.0,38.8,0.166559,32.89,3,S4
-65.0,-2.0,-8.0,-42.97,0.161442,32.83,4,S4
-37.0,-8.0,-52.0,-41.24,0.308566,32.15,1,S14
-17.0,-8.0,-62.0,-37.73,0.123067,33.05,1,S4
19.0,-58.0,15.0,-2.41,0.66784,33.75,2,S2
-41.0,-35.0,-36.0,-39.99,0.277864,32.07,1,S14
41.0,13.0,-47.0,6.6,0.114305,35.95,1,S2
-32.0,-47.0,29.0,-28.64,0.330313,33.13,2,S14
-54.0,-19.0,-36.0,-31.83,0.976651,33.29,1,S3
-48.0,-4.0,44.0,-14.35,0.392331,30.85,3,S3
-36.0,50.0,11.0,14.33,0.314962,31.87,3,S14
-24.0,-58.0,-7.0,-54.72,0.270188,32.27,1,S14
-50.0,53.0,5.0,-2.38,4.089392,32.34,2,S3
-20.0,-6.0,-61.0,19.83,0.123067,33.07,1,S4
62.0,0.0,11.0,13.45,0.278316,33.99,4,S2
62.0,1.0,11.0,13.18,0.223218,34.03,4,S2
62.0,0.0,11.0,9.45,0.265502,33.99,4,S2
-61.0,-3.0,22.0,8.5,1.32397,32.81,1,S3
-54.0,-4.0,34.0,0.65,0.370549,30.93,3,S3
62.0,0.0,12.0,-13.24,0.18606,34.25,4,S2
-65.0,-2.0,-2.0,-49.7,0.157605,32.87,4,S4
-61.0,-4.0,20.0,47.97,1.308595,32.81,1,S3
17.0,-60.0,14.0,-208.57,0.890792,33.57,2,S2
-64.0,13.0,-6.0,9.15,0.456393,30.57,4,S3
-32.0,-8.0,-56.0,24.39,0.121788,33.05,1,S4
61.0,0.0,-15.0,2.86,0.179653,34.15,3,S2
-65.0,-2.0,-3.0,32.31,0.156326,32.91,4,S4
6.0,-54.0,32.0,4.92,0.373112,30.83,3,S3
68.0,1.0,-4.0,-1.26,0.238594,34.23,3,S2
-65.0,0.0,5.0,16.75,0.187026,31.47,4,S4
-65.0,0.0,2.0,14.78,0.277864,32.27,1,S14
-49.0,0.0,41.0,36.01,0.170397,32.81,3,S4
-62.0,0.0,11.0,-3.32,0.187026,31.47,4,S4
-63.0,-5.0,14.0,27.83,2.025811,32.84,1,S3
-47.0,44.0,11.0,3.75,0.35133,30.95,4,S3
41.0,13.0,-46.0,5.62,0.113024,35.93,1,S2
-42.0,-47.0,-16.0,25.29,0.307287,32.07,1,S14
-61.0,-5.0,22.0,-32.69,2.557934,32.71,1,S3
60.0,0.0,-19.0,16.56,0.173247,34.15,3,S2
-54.0,-1.0,35.0,-5.34,0.389768,30.89,3,S3
-49.0,-38.0,-17.0,-37.78,0.343106,32.77,2,S14
43.0,14.0,-44.0,7.62,0.114305,35.79,1,S2
-44.0,18.0,43.0,-55.51,0.175513,32.73,3,S4
-64.0,12.0,-6.0,5.36,0.471768,30.47,4,S3
-64.0,14.0,-6.0,-11.7,0.453831,30.65,4,S3
-46.0,-45.0,-11.0,4.49,0.293215,32.16,1,S14
-58.0,-28.0,8.0,13.91,0.36997,32.87,2,S14
-41.0,-22.0,-16.0,20.15,0.33671,32.65,2,S14
-37.0,-7.0,-53.0,23.86,0.313683,32.11,1,S14
13.0,-57.0,17.0,18.26,0.652464,34.03,2,S2
-33.0,-52.0,-18.0,36.67,0.202376,32.79,1,S4
-53.0,-37.0,3.0,-16.3,0.343106,32.79,2,S14
-56.0,8.0,31.0,23.29,0.313683,31.71,4,S14
-50.0,7.0,40.0,-35.62,0.612775,33.33,1,S3
54.0,21.0,25.0,0.1,0.29241,35.83,1,S2
-44.0,19.0,43.0,-76.98,0.172955,32.77,3,S4
-44.0,-33.0,-17.0,20.94,0.275305,32.27,1,S14
-33.0,-7.0,-55.0,-20.47,0.11923,33.07,1,S4
-19.0,61.0,14.0,-171.71,2.169593,32.29,2,S4
15.0,-59.0,14.0,-17.77,1.066403,32.77,2,S2
62.0,0.0,12.0,-9.89,0.157871,34.63,4,S2
-44.0,0.0,47.0,1.53,0.367987,30.97,3,S3
54.0,24.0,24.0,-72.49,0.468022,35.79,1,S2
54.0,11.0,-30.0,-7.5,0.14762,35.91,1,S2
-56.0,8.0,31.0,-1.38,0.308566,31.59,4,S14
-65.0,-2.0,-2.0,-20.32,0.157605,32.84,4,S4
46.0,23.0,-10.0,14.23,0.091241,35.66,1,S2
-28.0,57.0,9.0,4.99,1.798234,31.95,2,S3
-48.0,18.0,39.0,41.81,0.174234,32.77,3,S4
-55.0,-34.0,-4.0,9.72,3.555109,32.73,1,S3
58.0,25.0,6.0,-11.7,0.118149,35.89,1,S2
16.0,-60.0,14.0,-33.25,0.738314,34.09,2,S2
-36.0,-51.0,7.0,-5.43,0.274026,32.27,1,S14
-35.0,-42.0,-36.0,10.68,0.285539,32.18,1,S14
-55.0,8.0,32.0,-35.02,0.3188,31.69,4,S14
-49.0,-42.0,-12.0,9.67,0.33671,32.68,2,S14
-56.0,-3.0,31.0,-488.04,1.46619,32.84,1,S3
-21.0,60.0,8.0,57.14,2.23611,32.47,2,S4
-65.0,-2.0,-2.0,14.65,0.151209,32.93,4,S4
62.0,1.0,-16.0,28.13,0.20528,34.25,3,S2
-66.0,3.0,-10.0,8.94,0.350781,32.83,2,S14
-65.0,-2.0,-5.0,-8.73,0.161442,32.83,4,S4
-33.0,76.0,23.0,5.9,2.928216,32.47,2,S3
-54.0,4.0,36.0,18.01,0.312404,32.5,4,S14
-65.0,-2.0,-2.0,-18.28,0.155047,32.89,4,S4
-21.0,-11.0,-60.0,17.58,0.125626,32.99,1,S4
58.0,22.0,16.0,-0.4,0.351352,33.71,4,S2
-56.0,7.0,32.0,13.08,0.316242,31.73,4,S14
-18.0,62.0,9.0,136.89,2.108713,32.23,2,S4
-20.0,-6.0,-61.0,-13.21,0.120509,33.07,1,S4
-54.0,0.0,38.0,-15.18,1.166376,32.89,1,S3
-30.0,-9.0,-57.0,-17.13,0.124346,33.11,1,S4
-64.0,-5.0,12.0,27.09,0.280422,32.27,1,S14
59.0,0.0,-18.0,42.38,0.184779,34.16,3,S2
16.0,-60.0,14.0,-15.01,0.903674,33.43,2,S2
-66.0,0.0,8.0,7.66,0.185747,31.47,4,S4
-45.0,45.0,11.0,1.66,0.339799,30.93,4,S3
60.0,0.0,-19.0,14.48,0.168121,34.15,3,S2
-19.0,60.0,12.0,-0.59,0.320079,31.99,3,S14
-65.0,-2.0,-3.0,19.61,0.153767,32.93,4,S4
-5.0,81.0,62.0,0.07,2.526788,32.59,2,S4
57.0,22.0,17.0,4.22,0.337257,33.73,4,S2
-56.0,8.0,32.0,-12.84,0.313683,31.73,4,S14
-61.0,-19.0,-15.0,-9.8,0.813932,33.34,1,S3
-65.0,-1.0,7.0,-2.45,0.281702,32.25,1,S14
-64.0,13.0,-5.0,10.07,0.460237,30.55,4,S3
-23.0,61.0,10.0,23.83,2.762156,32.61,2,S4
-56.0,-31.0,9.0,-16.53,1.675233,32.84,1,S3
-28.0,57.0,9.0,-4.87,1.754671,31.91,2,S3
-45.0,-44.0,-15.0,-20.97,0.289377,32.15,1,S14
38.0,-56.0,14.0,27.96,0.585835,33.89,2,S2
54.0,24.0,22.0,-4.55,0.155308,35.89,1,S2
-19.0,60.0,12.0,-10.25,0.317521,31.99,3,S14
14.0,-59.0,14.0,-7.55,1.018994,33.45,2,S2
-44.0,18.0,43.0,29.27,0.172955,32.75,3,S4
-21.0,-11.0,-60.0,44.64,0.126905,33.0,1,S4
-54.0,4.0,36.0,-19.49,0.314962,32.57,4,S14
-56.0,8.0,31.0,10.87,0.313683,31.75,4,S14
-53.0,5.0,36.0,3.25,0.321359,32.39,4,S14
-66.0,-2.0,-2.0,23.25,0.156326,32.91,4,S4
-65.0,-3.0,-3.0,32.01,0.152488,32.93,4,S4
-63.0,-5.0,15.0,-36.47,0.401299,31.11,4,S3
-35.0,-52.0,12.0,8.6,0.425643,30.83,3,S3
-42.0,-13.0,-50.0,-54.5,0.105159,33.09,1,S4
-45.0,-39.0,-23.0,13.92,0.286819,32.18,1,S14
-64.0,13.0,-5.0,5.56,0.448706,30.65,4,S3
-61.0,-19.0,-15.0,-2.64,0.892089,33.23,1,S3
15.0,-55.0,14.0,177.99,0.590961,33.93,2,S2
-37.0,-7.0,-52.0,-4.07,0.309845,32.09,1,S14
-27.0,-46.0,-19.0,-16.96,0.33543,32.65,2,S14
-63.0,-4.0,15.0,-33.46,0.401299,31.09,4,S3
-50.0,40.0,8.0,-432.66,1.961608,32.68,2,S4
-40.0,-38.0,-32.0,-1.45,0.334151,32.66,2,S14
-16.0,62.0,7.0,19.27,0.320079,31.95,3,S14
-19.0,60.0,10.0,-47.75,0.320079,32.0,3,S14
-19.0,61.0,12.0,12.06,0.320079,31.99,3,S14
-20.0,-7.0,-61.0,37.82,0.120509,33.03,1,S4
-56.0,7.0,32.0,-28.3,0.3188,31.69,4,S14
-20.0,-11.0,-60.0,26.11,0.126905,33.0,1,S4
-30.0,-36.0,-48.0,-23.97,0.286819,32.13,1,S14
-37.0,-36.0,-37.0,-61.12,0.291936,32.15,1,S14
-25.0,-59.0,-8.0,27.15,0.271468,32.27,1,S14
49.0,28.0,29.0,34.41,0.125837,35.91,1,S2
-38.0,-51.0,9.0,-38.2,0.272747,32.25,1,S14
24.0,-55.0,10.0,-47.97,0.620431,34.0,2,S2
-50.0,-4.0,41.0,4.37,0.389768,30.77,3,S3
-19.0,-44.0,-42.0,7.32,0.11923,33.0,1,S4
-53.0,5.0,36.0,13.46,0.321359,32.41,4,S14
62.0,1.0,11.0,-5.53,0.251408,34.0,4,S2
57.0,23.0,17.0,-4.52,0.201436,33.65,4,S2
-25.0,-58.0,-8.0,-13.17,0.271468,32.25,1,S14
-52.0,-37.0,7.0,6.74,0.348223,32.83,2,S14
-44.0,-37.0,-13.0,-3.31,0.33543,32.65,2,S14
-55.0,-2.0,34.0,-8.32,0.392331,30.89,3,S3
-15.0,64.0,8.0,-62.09,2.071617,32.21,2,S4
-55.0,-35.0,-29.0,-50.5,0.337989,32.68,2,S14
-58.0,-31.0,2.0,-93.03,0.350781,32.83,2,S14
-63.0,14.0,-6.0,-4.28,0.455112,30.65,4,S3
-54.0,4.0,35.0,22.17,0.308566,32.5,4,S14
-38.0,-51.0,9.0,-23.52,0.271468,32.27,1,S14
-63.0,1.0,20.0,13.53,0.187026,31.41,4,S4
-64.0,14.0,-4.0,9.72,0.439737,30.65,4,S3
-20.0,-7.0,-61.0,7.12,0.120509,33.05,1,S4
62.0,1.0,11.0,13.65,0.30138,34.07,4,S2
-30.0,-57.0,6.0,47.16,0.277864,32.21,1,S14
-15.0,62.0,6.0,-12.61,0.317521,31.99,3,S14
-34.0,-6.0,-55.0,-32.81,0.115392,33.09,1,S4
57.0,22.0,17.0,-8.1,0.250126,33.63,4,S2
-29.0,57.0,13.0,-4.59,3.523157,32.47,2,S3
-20.0,61.0,7.0,-69.38,2.467641,32.5,2,S4
-31.0,57.0,9.0,3.36,2.748841,32.09,2,S3
-62.0,1.0,19.0,-5.36,0.193422,31.41,4,S4
-55.0,9.0,33.0,4.75,0.320079,31.67,4,S14
-64.0,-2.0,12.0,12.98,0.339268,33.16,2,S14
62.0,1.0,11.0,-23.02,0.246282,33.97,4,S2
-20.0,61.0,8.0,22.31,2.261693,32.45,2,S4
-64.0,14.0,-5.0,4.79,0.442299,30.55,4,S3
-43.0,-1.0,47.0,-5.4,0.362862,30.97,3,S3
-62.0,-8.0,-16.0,-10.0,0.194701,32.83,1,S4
-44.0,18.0,43.0,-107.26,0.172955,32.75,3,S4
-32.0,50.0,16.0,66.28,0.373808,32.89,2,S14
25.0,-52.0,24.0,-73.91,0.58715,33.16,1,S3
60.0,-1.0,-21.0,-18.92,0.207842,34.27,3,S2
62.0,0.0,11.0,3.43,0.265502,33.99,4,S2
62.0,0.0,11.0,13.02,0.265502,33.97,4,S2
-56.0,-30.0,13.0,-2.44,0.367987,33.25,1,S3
62.0,1.0,11.0,3.38,0.195029,34.18,4,S2
62.0,0.0,11.0,-14.36,0.296254,34.05,4,S2
-29.0,-8.0,-57.0,7.99,0.160163,32.91,1,S4
-60.0,-19.0,-15.0,-5.03,0.78062,33.43,1,S3
-37.0,-4.0,-50.0,-28.06,0.117951,33.07,1,S4
24.0,57.0,14.0,-1.61,0.239876,34.03,3,S2
-64.0,13.0,-5.0,1.79,0.449987,30.63,4,S3
61.0,5.0,-9.0,21.3,0.878048,35.71,1,S2
-21.0,-11.0,-60.0,27.68,0.126905,32.99,1,S4
-54.0,-35.0,-7.0,15.3,2.070655,32.84,1,S3
-63.0,2.0,17.0,13.36,0.181909,31.43,4,S4
-64.0,14.0,-5.0,7.66,0.45255,30.65,4,S3
-54.0,4.0,36.0,-31.86,0.317521,32.5,4,S14
-41.0,-47.0,-17.0,-57.29,0.306008,32.07,1,S14
-44.0,-44.0,16.0,-0.79,0.309845,32.99,2,S14
57.0,23.0,17.0,-3.97,0.178372,33.99,4,S2
-32.0,55.0,11.0,3.73,3.922829,32.16,2,S3
62.0,0.0,12.0,6.08,0.143776,34.63,4,S2
-65.0,-2.0,-2.0,-7.31,0.153767,32.93,4,S4
-31.0,-55.0,8.0,29.94,0.266351,32.25,1,S14
-65.0,-3.0,-3.0,30.52,0.152488,32.93,4,S4
-30.0,56.0,10.0,2.52,3.51539,32.16,2,S3
-20.0,-4.0,-61.0,63.16,0.121788,33.07,1,S4
-42.0,-2.0,48.0,-6.1,0.403862,33.13,1,S3
-64.0,-6.0,-11.0,-31.33,0.189584,32.84,1,S4
-18.0,61.0,11.0,0.61,0.3188,31.87,3,S14
48.0,-11.0,-32.0,-9.75,0.159152,35.89,1,S2
15.0,-59.0,15.0,-75.25,1.13047,32.83,2,S2
-22.0,-10.0,-60.0,-28.96,0.125626,32.99,1,S4
-51.0,-1.0,39.0,5.45,0.455112,33.16,1,S3
-17.0,62.0,7.0,4.83,0.3188,31.97,3,S14
56.0,25.0,17.0,-6.22,0.102773,35.91,1,S2
-56.0,12.0,31.0,-31.1,0.306008,31.55,4,S14
-21.0,-7.0,-61.0,55.03,0.120509,33.07,1,S4
-56.0,-34.0,-3.0,-3.27,2.992718,32.84,1,S3
-61.0,-19.0,-15.0,-25.36,0.869026,33.25,1,S3
-30.0,-7.0,-57.0,38.67,0.11923,33.07,1,S4
8.0,-55.0,31.0,-15.7,0.369268,30.89,3,S3
-41.0,-47.0,-22.0,-114.66,0.192143,32.81,1,S4
-17.0,61.0,10.0,157.77,2.630096,32.39,2,S4
32.0,-44.0,18.0,77.67,0.724219,33.68,2,S2
54.0,25.0,22.0,9.35,0.098929,35.91,1,S2
62.0,1.0,11.0,14.36,0.289848,34.03,4,S2
-46.0,44.0,12.0,-5.45,0.343643,30.95,4,S3
-65.0,-3.0,-3.0,9.53,0.155047,32.95,4,S4
-31.0,56.0,10.0,-0.01,3.324563,32.13,2,S3
62.0,0.0,12.0,14.44,0.145057,34.66,4,S2
-15.0,62.0,5.0,3.47,0.316242,31.97,3,S14
47.0,21.0,-37.0,5.13,0.102773,35.65,1,S2
-38.0,53.0,5.0,-25.08,2.266051,32.73,2,S4
-33.0,-39.0,-42.0,40.53,0.288098,32.16,1,S14
49.0,13.0,-38.0,-7.66,0.125837,35.68,1,S2
-64.0,14.0,-5.0,0.8,0.442299,30.63,4,S3
9.0,-56.0,25.0,16.5,0.589713,33.16,1,S3
-46.0,45.0,10.0,-1.93,0.34108,30.91,4,S3
-54.0,4.0,36.0,-23.02,0.316242,32.55,4,S14
17.0,-59.0,19.0,-23.0,0.634526,34.03,2,S2
-14.0,62.0,7.0,-10.93,0.3188,31.95,3,S14
-65.0,-2.0,-2.0,-7.58,0.155047,32.87,4,S4
-56.0,7.0,32.0,-33.75,0.317521,31.69,4,S14
-44.0,19.0,43.0,61.05,0.172955,32.75,3,S4
-63.0,-4.0,15.0,-19.28,0.401299,31.07,4,S3
-38.0,-7.0,-52.0,111.62,0.303449,32.21,1,S14
16.0,-59.0,14.0,-10.28,1.125345,32.66,2,S2
-56.0,7.0,32.0,13.69,0.316242,31.75,4,S14
-62.0,-20.0,-8.0,2.53,0.724244,33.43,1,S3
-64.0,14.0,-6.0,3.27,0.469206,30.49,4,S3
-31.0,-7.0,-56.0,-25.92,0.120509,33.07,1,S4
-54.0,-33.0,-13.0,-25.53,0.281702,32.25,1,S14
-56.0,8.0,32.0,-9.16,0.3188,31.71,4,S14
-55.0,-34.0,-4.0,3.9,3.457734,32.73,1,S3
-45.0,-37.0,-25.0,35.29,0.285539,32.11,1,S14
-56.0,8.0,32.0,12.59,0.312404,31.67,4,S14
-42.0,-44.0,17.0,18.32,0.314962,33.03,2,S14
-49.0,1.0,42.0,18.62,0.167838,32.83,3,S4
-37.0,-7.0,-53.0,32.1,0.308566,32.13,1,S14
55.0,23.0,22.0,8.59,0.157871,35.91,1,S2
16.0,-59.0,15.0,36.53,0.97536,33.49,2,S2
-35.0,-42.0,-34.0,-12.68,0.33671,32.73,2,S14
-43.0,-46.0,7.0,1.31,0.33671,32.75,2,S14
-36.0,-8.0,-52.0,-16.83,0.304728,32.21,1,S14
55.0,23.0,22.0,-2.69,0.145057,35.89,1,S2
62.0,0.0,12.0,-16.93,0.14762,34.63,4,S2
3.0,-53.0,33.0,-8.68,0.400018,30.89,3,S3
-65.0,-2.0,11.0,4.08,0.330313,33.16,2,S14
-61.0,1.0,21.0,-31.59,0.187026,31.41,4,S4
-46.0,44.0,11.0,-5.16,0.347487,30.93,4,S3
0.0,-54.0,32.0,-8.34,0.373112,30.71,3,S3
-52.0,-39.0,-31.0,-82.0,0.337989,32.68,2,S14
-65.0,-23.0,-2.0,-8.74,0.341827,32.65,2,S14
-22.0,-11.0,-60.0,-35.62,0.128184,32.97,1,S4
-27.0,-16.0,54.0,-212.16,4.841912,32.63,1,S3
-43.0,-46.0,-14.0,-11.91,0.307287,32.18,1,S14
-58.0,-7.0,-30.0,-40.61,0.105159,33.07,1,S4
-56.0,-36.0,11.0,-11.16,0.350781,32.81,2,S14
-31.0,-48.0,29.0,-3.44,0.332872,33.16,2,S14
-61.0,-20.0,-9.0,8.54,0.697338,33.43,1,S3
-44.0,-32.0,33.0,11.24,4.63563,32.65,1,S3
-27.0,58.0,11.0,6.68,3.424501,32.49,2,S3
-49.0,0.0,9.0,-2.22,2.451187,32.05,2,S3
-28.0,-56.0,16.0,-1.51,0.984339,33.27,1,S3
-21.0,60.0,6.0,-56.77,2.545975,32.5,2,S4
63.0,0.0,-6.0,-8.9,0.196311,34.33,3,S2
-47.0,-9.0,43.0,8.88,6.103952,32.63,1,S3
55.0,25.0,21.0,1.0,0.514081,35.79,1,S2
62.0,0.0,12.0,12.48,0.14762,34.61,4,S2
53.0,16.0,31.0,-15.8,0.847296,35.68,1,S2
-24.0,-59.0,-8.0,7.76,0.265071,32.23,1,S14
-65.0,-2.0,-2.0,19.32,0.156326,32.84,4,S4
-34.0,-8.0,-54.0,-13.09,0.157605,32.89,1,S4
-49.0,19.0,38.0,-44.05,0.18063,32.77,3,S4
-17.0,61.0,11.0,267.07,2.106914,32.31,2,S4
-50.0,-37.0,-17.0,-9.69,0.294494,32.16,1,S14
59.0,19.0,-1.0,12.22,0.374416,35.89,1,S2
-30.0,57.0,10.0,12.9,1.890484,31.95,2,S3
-49.0,8.0,40.0,8.59,0.167838,32.79,3,S4
-65.0,-1.0,7.0,9.92,0.181909,31.47,4,S4
-65.0,-3.0,-2.0,10.6,0.152488,32.95,4,S4
-48.0,-23.0,-38.0,23.57,0.992126,33.25,1,S3
-54.0,4.0,35.0,0.37,0.308566,32.53,4,S14
-64.0,-2.0,3.0,-26.26,0.271468,32.29,1,S14
44.0,31.0,29.0,-132.76,0.693536,35.73,1,S2
-42.0,-47.0,6.0,-42.5,0.272747,32.27,1,S14
-46.0,45.0,9.0,-4.5,0.337237,30.91,4,S3
-52.0,-3.0,37.0,4.53,2.961968,32.84,1,S3
-39.0,-51.0,6.0,-14.74,4.8701,32.63,1,S3
-21.0,-11.0,-61.0,17.15,0.125626,33.0,1,S4
-45.0,45.0,11.0,1.26,0.34108,30.91,4,S3
-48.0,-60.0,-58.0,94.37,0.340547,32.77,2,S14
-29.0,56.0,10.0,-0.32,2.92181,32.09,2,S3
-30.0,57.0,14.0,3.1,3.830579,32.34,2,S3
43.0,14.0,-44.0,3.71,0.116868,35.75,1,S2
-42.0,-48.0,-8.0,23.25,0.341827,32.81,2,S14
54.0,26.0,20.0,-22.74,0.48461,35.77,1,S2
-49.0,-3.0,41.0,-13.86,0.405143,30.71,3,S3
57.0,16.0,22.0,15.88,0.210405,35.79,1,S2
-60.0,-19.0,-15.0,-14.4,0.793432,33.39,1,S3
-25.0,59.0,1.0,3.07,2.366586,32.47,2,S4
62.0,1.0,11.0,16.2,0.232188,33.99,4,S2
-65.0,-2.0,-3.0,-60.61,0.152488,32.95,4,S4
-46.0,45.0,9.0,-0.52,0.332112,30.89,4,S3
-32.0,-8.0,-56.0,-56.08,0.130742,32.91,1,S4
54.0,26.0,21.0,18.11,0.096367,35.91,1,S2
-52.0,-35.0,-17.0,21.48,0.288098,32.09,1,S14
-57.0,-35.0,-28.0,-39.61,0.33671,32.65,2,S14
-37.0,-8.0,-52.0,13.07,0.311125,32.15,1,S14
-53.0,2.0,37.0,-21.67,0.510206,33.18,1,S3
-43.0,-48.0,-7.0,1.43,0.290656,32.15,1,S14
-31.0,-9.0,-56.0,32.22,0.169117,32.89,1,S4
-23.0,55.0,16.0,-7.13,4.230042,32.23,2,S3
21.0,-59.0,13.0,76.49,0.567897,33.79,2,S2
-64.0,-32.0,-20.0,41.32,0.340547,32.71,2,S14
-46.0,45.0,9.0,-3.11,0.333393,30.87,4,S3
-52.0,-1.0,38.0,10.49,0.467925,33.18,1,S3
-21.0,61.0,15.0,-7.87,2.688938,32.43,2,S4
-31.0,57.0,10.0,-0.78,0.432049,32.61,2,S3
-65.0,-2.0,6.0,14.17,0.183188,31.47,4,S4
-18.0,61.0,12.0,-22.07,0.320079,31.91,3,S14
16.0,-59.0,14.0,3.61,1.120219,32.63,2,S2
-61.0,-20.0,-9.0,-1.17,0.724244,33.43,1,S3
63.0,0.0,-6.0,-43.78,0.187341,34.33,3,S2
-61.0,-20.0,-8.0,-14.09,0.742182,33.45,1,S3
-46.0,-44.0,12.0,-3.35,0.298332,32.97,2,S14
-29.0,57.0,9.0,1.2,1.726483,31.93,2,S3
-54.0,5.0,36.0,10.04,0.320079,32.45,4,S14
-18.0,62.0,7.0,-31.01,0.321359,31.97,3,S14
-24.0,60.0,10.0,6.16,2.200293,32.68,2,S4
54.0,28.0,18.0,289.79,0.080991,35.63,1,S2
-57.0,-30.0,3.0,41.09,1.762358,32.83,1,S3
-56.0,7.0,32.0,-8.84,0.3188,31.73,4,S14
-34.0,-6.0,-54.0,-6.57,0.116671,33.09,1,S4
-31.0,-55.0,7.0,5.49,0.268909,32.18,1,S14
-54.0,-31.0,15.0,-16.75,0.362862,33.25,1,S3
-33.0,52.0,17.0,-68.76,0.313683,31.77,3,S14
62.0,0.0,12.0,13.12,0.152745,34.63,4,S2
-64.0,-1.0,6.0,-28.14,0.272747,32.29,1,S14
59.0,0.0,-21.0,11.6,0.193748,34.25,3,S2
-42.0,-2.0,48.0,3.84,0.408987,33.15,1,S3
-31.0,-55.0,0.0,21.01,0.290656,32.05,1,S14
62.0,0.0,12.0,17.4,0.150183,34.63,4,S2
-61.0,-19.0,-15.0,-6.84,0.865182,33.27,1,S3
-48.0,19.0,38.0,53.73,0.18063,32.77,3,S4
28.0,57.0,4.0,15.48,0.220656,34.07,3,S2
-38.0,51.0,11.0,1.0,0.314962,31.77,3,S14
-55.0,-35.0,1.0,37.49,2.046311,32.83,1,S3
-44.0,18.0,43.0,-41.1,0.172955,32.71,3,S4
-18.0,61.0,10.0,-38.11,2.279602,32.34,2,S4
-52.0,0.0,38.0,11.45,0.47305,33.16,1,S3
-23.0,61.0,11.0,140.97,2.277044,32.29,2,S4
49.0,12.0,-37.0,10.38,0.104055,35.71,1,S2
-52.0,-1.0,38.0,-14.74,0.479456,33.18,1,S3
-66.0,0.0,-5.0,-3.39,0.157605,32.79,4,S4
13.0,-59.0,16.0,-1.47,0.183188,31.45,4,S4
-55.0,-34.0,-3.0,-7.86,3.282282,32.79,1,S3
-33.0,-8.0,-55.0,42.0,0.137138,32.93,1,S4
-45.0,-44.0,16.0,-14.65,0.309845,33.07,2,S14
-52.0,-26.0,-46.0,-47.24,0.339268,32.75,2,S14
-21.0,60.0,11.0,7.63,2.219481,32.47,2,S4
-68.0,14.0,-35.0,-2.2,0.603737,32.57,2,S3
-31.0,56.0,9.0,-24.54,2.743716,32.11,2,S3
-62.0,2.0,19.0,21.27,0.19598,31.39,4,S4
-47.0,-5.0,44.0,12.68,0.402581,30.83,3,S3
-43.0,-1.0,47.0,-0.24,0.36158,30.97,3,S3
-56.0,7.0,31.0,19.87,0.314962,31.73,4,S14
-50.0,6.0,41.0,15.72,0.633275,33.37,1,S3
-18.0,60.0,0.0,-78.23,1.980795,32.25,2,S4
63.0,0.0,-3.0,-29.07,0.214249,34.37,3,S2
56.0,22.0,18.0,-174.97,0.294973,33.71,4,S2
-61.0,-5.0,22.0,-1.65,2.525902,32.73,1,S3
-32.0,-47.0,27.0,26.55,0.330313,33.13,2,S14
-65.0,-1.0,10.0,12.14,0.192143,31.47,4,S4
41.0,13.0,-46.0,-13.38,0.114305,35.95,1,S2
-34.0,-54.0,5.0,27.9,0.275305,32.27,1,S14
-65.0,0.0,-7.0,-54.82,0.152488,32.73,4,S4
58.0,19.0,16.0,-19.41,0.247564,35.75,1,S2
-44.0,3.0,46.0,-44.42,1.641921,32.84,1,S3
14.0,-59.0,17.0,-23.53,0.183188,31.45,4,S4
-21.0,-11.0,-59.0,-10.56,0.125626,32.97,1,S4
50.0,30.0,24.0,9.9,0.389792,35.87,1,S2
15.0,-59.0,14.0,-29.85,1.14969,32.77,2,S2
-24.0,-58.0,-7.0,7.76,0.270188,32.31,1,S14
-65.0,-1.0,9.0,0.2,0.192143,31.49,4,S4
15.0,-59.0,14.0,21.15,1.083061,32.79,2,S2
-54.0,4.0,36.0,-28.38,0.316242,32.55,4,S14
62.0,0.0,12.0,18.31,0.173247,34.41,4,S2
-64.0,13.0,-6.0,-18.29,0.451268,30.63,4,S3
38.0,28.0,37.0,37.94,0.119431,35.91,1,S2
-42.0,-35.0,-35.0,-39.37,0.279143,32.13,1,S14
-40.0,-24.0,44.0,17.53,0.175513,31.47,4,S4
54.0,25.0,21.0,-13.25,0.102773,35.89,1,S2
-56.0,-31.0,9.0,6.57,1.615014,32.87,1,S3
-44.0,-28.0,-39.0,23.43,0.285539,32.13,1,S14
-53.0,5.0,36.0,14.0,0.320079,32.43,4,S14
-63.0,14.0,-6.0,-14.99,0.457675,30.63,4,S3
58.0,0.0,-24.0,-31.97,0.219374,34.29,3,S2
-48.0,-36.0,-25.0,26.21,0.285539,32.09,1,S14
-39.0,51.0,11.0,3.3,0.312404,31.75,3,S14
-60.0,-19.0,-15.0,8.99,0.792151,33.41,1,S3
-65.0,-1.0,9.0,23.3,0.280422,32.23,1,S14
-46.0,-7.0,44.0,-26.15,5.798165,32.55,1,S3
-55.0,-4.0,33.0,-4.85,0.383362,30.93,3,S3
40.0,37.0,33.0,-9.49,0.578216,35.79,1,S2
-32.0,-7.0,-56.0,42.05,0.121788,33.05,1,S4
-45.0,-38.0,-22.0,-19.47,0.340547,32.66,2,S14
-54.0,4.0,36.0,-35.73,0.313683,32.53,4,S14
-19.0,-11.0,-61.0,15.25,0.125626,32.97,1,S4
-64.0,14.0,-5.0,2.47,0.443581,30.63,4,S3
-56.0,7.0,32.0,1.68,0.317521,31.73,4,S14
-54.0,-4.0,34.0,2.46,0.410268,33.15,1,S3
-34.0,-6.0,-55.0,-42.96,0.114113,33.11,1,S4
13.0,-58.0,19.0,-26.81,0.185747,31.45,4,S4
-46.0,45.0,10.0,0.74,0.339799,30.93,4,S3
-47.0,-46.0,-1.0,64.24,0.306008,32.09,1,S14
-42.0,-22.0,42.0,53.31,0.293215,32.15,1,S14
-41.0,-50.0,-3.0,-4.74,0.281702,32.09,1,S14
15.0,-60.0,13.0,-17.23,0.585835,33.84,2,S2
-56.0,8.0,31.0,8.72,0.314962,31.67,4,S14
-19.0,61.0,4.0,35.52,2.513691,32.63,2,S4
57.0,22.0,18.0,-57.36,0.315474,33.68,4,S2
-35.0,-38.0,-42.0,-10.69,0.30217,32.16,1,S14
-55.0,-31.0,7.0,-14.76,1.764921,32.81,1,S3
-64.0,14.0,-5.0,9.01,0.442299,30.65,4,S3
-57.0,-36.0,-6.0,23.09,0.354619,32.81,2,S14
-50.0,18.0,36.0,161.53,0.170397,32.77,3,S4
-55.0,-34.0,-4.0,-2.63,3.547421,32.73,1,S3
-63.0,1.0,17.0,22.09,0.18063,31.45,4,S4
-29.0,61.0,5.0,37.07,2.010975,32.66,2,S4
-52.0,28.0,27.0,54.64,0.146092,32.73,4,S4
65.0,0.0,4.0,87.17,0.130963,35.55,1,S2
-20.0,-6.0,-61.0,-61.25,0.114113,33.07,1,S4
16.0,-60.0,13.0,9.12,1.124063,32.63,2,S2
-34.0,53.0,18.0,31.51,0.316242,31.79,3,S14
-64.0,12.0,-6.0,2.42,0.469206,30.47,4,S3
16.0,-58.0,14.0,-61.93,0.602492,33.84,2,S2
-46.0,41.0,10.0,0.92,0.373112,31.09,4,S3
62.0,0.0,11.0,1.88,0.202717,34.15,4,S2
-16.0,62.0,10.0,-61.26,2.039117,32.27,2,S4
-56.0,-29.0,13.0,-14.22,0.374393,33.13,1,S3
61.0,0.0,-16.0,2.77,0.180935,34.16,3,S2
-63.0,1.0,14.0,57.04,0.179351,31.45,4,S4
-44.0,18.0,43.0,6.29,0.174234,32.75,3,S4
-53.0,95.0,13.0,2.16,0.346205,32.71,2,S3
-61.0,-7.0,18.0,-7.47,2.682215,32.75,1,S3
-37.0,52.0,11.0,-9.71,0.313683,31.81,3,S14
-55.0,-4.0,34.0,-1.59,0.375674,30.93,3,S3
-57.0,33.0,-6.0,169.83,2.135576,32.73,2,S4
-31.0,-55.0,9.0,23.97,0.26763,32.23,1,S14
-44.0,18.0,43.0,-0.05,0.171676,32.77,3,S4
-51.0,-1.0,43.0,-45.48,0.170397,32.79,3,S4
-53.0,-36.0,-9.0,-50.46,2.06553,32.84,1,S3
-31.0,-9.0,-55.0,-14.3,0.152488,32.91,1,S4
-46.0,-8.0,44.0,8.56,5.826352,32.57,1,S3
-59.0,-23.0,-14.0,10.21,0.692213,33.43,1,S3
-64.0,13.0,-6.0,4.39,0.460237,30.55,4,S3
-65.0,-2.0,-2.0,23.74,0.155047,32.91,4,S4
-25.0,-49.0,-29.0,-34.45,0.294494,32.03,1,S14
-46.0,-34.0,-29.0,27.19,0.289377,32.15,1,S14
43.0,13.0,-44.0,22.82,0.116868,35.79,1,S2
-31.0,56.0,9.0,1.67,2.914122,32.11,2,S3
-50.0,6.0,42.0,-68.73,0.167838,32.77,3,S4
57.0,22.0,17.0,1.95,0.279597,33.66,4,S2
-61.0,-5.0,19.0,-23.53,1.268876,32.89,1,S3
-32.0,56.0,9.0,6.67,4.743256,32.29,2,S3
15.0,-59.0,13.0,92.0,0.593523,33.87,2,S2
-56.0,7.0,32.0,6.89,0.3188,31.73,4,S14
-23.0,-10.0,-60.0,6.27,0.129463,32.95,1,S4
-44.0,-46.0,-13.0,-6.65,0.309845,32.09,1,S14
-33.0,-7.0,-56.0,-23.26,0.11923,33.07,1,S4
-53.0,4.0,36.0,15.98,0.313683,32.53,4,S14
-25.0,-11.0,-59.0,30.72,0.129463,32.93,1,S4
-29.0,58.0,11.0,-2.19,4.218799,32.39,2,S3
-53.0,5.0,36.0,18.05,0.3188,32.43,4,S14
-20.0,-46.0,-40.0,-4.63,0.116671,33.0,1,S4
-31.0,-9.0,-56.0,31.46,0.14993,32.89,1,S4
-49.0,7.0,41.0,30.95,0.170397,32.77,3,S4
-50.0,7.0,40.0,-0.39,0.616619,33.33,1,S3
-60.0,-5.0,22.0,-29.05,2.524621,32.71,1,S3
-56.0,8.0,31.0,-9.02,0.308566,31.69,4,S14
-61.0,6.0,9.0,-4.59,0.346944,32.84,2,S14
-36.0,-14.0,51.0,-7.93,4.8701,32.61,1,S3
-36.0,52.0,15.0,-17.27,0.311125,31.79,3,S14
-54.0,4.0,36.0,19.17,0.317521,32.53,4,S14
-22.0,58.0,4.0,-67.34,2.556209,32.59,2,S4
-64.0,14.0,-5.0,-12.32,0.442299,30.63,4,S3
56.0,18.0,23.0,18.89,0.177091,35.87,1,S2
-19.0,60.0,12.0,1.29,0.320079,32.0,3,S14
-51.0,7.0,39.0,16.42,0.621744,33.31,1,S3
-34.0,-8.0,-55.0,35.75,0.161442,32.91,1,S4
-53.0,5.0,36.0,-23.4,0.314962,32.41,4,S14
-64.0,13.0,-5.0,0.58,0.446143,30.63,4,S3
-56.0,-30.0,13.0,3.95,0.369268,33.29,1,S3
-64.0,14.0,-4.0,-9.25,0.441018,30.63,4,S3
63.0,0.0,-6.0,12.43,0.192467,34.31,3,S2
-19.0,-6.0,-61.0,29.4,0.11923,33.07,1,S4
62.0,0.0,11.0,-7.69,0.280878,34.0,4,S2
57.0,23.0,17.0,12.5,0.216812,33.63,4,S2
-54.0,-6.0,34.0,6.54,0.382081,30.93,3,S3
-42.0,-42.0,-18.0,20.1,0.341827,32.77,2,S14
18.0,-60.0,17.0,-74.9,0.602492,33.84,2,S2
-34.0,-9.0,-54.0,26.51,0.151209,32.89,1,S4
58.0,24.0,-3.0,-11.25,0.093804,35.63,1,S2
-63.0,-4.0,15.0,10.94,0.401299,31.11,4,S3
-47.0,-39.0,-22.0,15.07,0.286819,32.21,1,S14
-65.0,-2.0,5.0,34.6,0.18063,31.47,4,S4
-65.0,-3.0,-1.0,-37.47,0.151209,32.91,4,S4
-60.0,-21.0,2.0,17.09,0.662744,33.43,1,S3
-53.0,5.0,36.0,8.63,0.317521,32.49,4,S14
-33.0,-7.0,-56.0,-61.84,0.11923,33.09,1,S4
-50.0,-36.0,-21.0,-41.32,0.286819,32.09,1,S14
-22.0,61.0,9.0,45.88,2.540554,32.61,2,S4
-37.0,-8.0,-53.0,2.99,0.307287,32.15,1,S14
-20.0,-7.0,-62.0,20.77,0.121788,33.05,1,S4
-42.0,8.0,48.0,2.75,0.567931,33.23,1,S3
-65.0,-2.0,-2.0,33.56,0.152488,32.93,4,S4
-48.0,19.0,38.0,-37.57,0.18063,32.77,3,S4
-53.0,-6.0,36.0,0.68,2.856466,32.81,1,S3
64.0,0.0,-4.0,-6.73,0.220656,34.37,3,S2
-65.0,-2.0,5.0,-35.08,0.183188,31.49,4,S4
-6.0,67.0,-15.0,42.9,2.181626,32.18,2,S4
-32.0,56.0,9.0,1.6,3.064468,32.13,2,S3
-56.0,8.0,31.0,-3.89,0.311125,31.61,4,S14
-56.0,-4.0,33.0,1.65,0.382081,30.91,3,S3
-63.0,2.0,16.0,20.93,0.184468,31.41,4,S4
-19.0,60.0,14.0,42.97,2.548534,32.39,2,S4
-63.0,1.0,17.0,15.04,0.181909,31.43,4,S4
-52.0,-1.0,39.0,-3.94,0.447425,33.18,1,S3
-19.0,62.0,-1.0,6.92,2.241747,32.21,2,S4
-46.0,45.0,9.0,1.26,0.332112,30.83,4,S3
-23.0,-7.0,-59.0,-34.08,0.129463,32.95,1,S4
-1.0,-55.0,30.0,4.86,0.374393,30.73,3,S3
62.0,0.0,12.0,17.71,0.155308,34.63,4,S2
-25.0,-59.0,-8.0,10.97,0.26763,32.27,1,S14
29.0,55.0,-14.0,151.26,0.238594,34.09,3,S2
-31.0,-55.0,7.0,22.73,0.275305,32.23,1,S14
-32.0,-7.0,-56.0,30.36,0.121788,33.07,1,S4
-54.0,53.0,-8.0,-1.94,0.34108,32.73,2,S3
-42.0,-2.0,48.0,1.45,0.398737,33.15,1,S3
-56.0,7.0,31.0,14.73,0.312404,31.61,4,S14
16.0,-59.0,14.0,120.8,0.589679,33.89,2,S2
-55.0,19.0,29.0,-104.64,0.179351,32.75,3,S4
62.0,0.0,12.0,-15.81,0.157871,34.63,4,S2
3.0,-53.0,34.0,-2.58,0.398737,30.89,3,S3
-60.0,-5.0,24.0,-7.92,0.356455,30.97,3,S3
-52.0,1.0,38.0,0.35,1.192001,32.95,1,S3
46.0,22.0,-37.0,0.27,0.101492,35.65,1,S2
-56.0,-31.0,9.0,-16.26,1.670108,32.83,1,S3
63.0,0.0,-9.0,6.76,0.218093,34.18,3,S2
-65.0,-2.0,-2.0,10.7,0.156326,32.87,4,S4
13.0,-59.0,16.0,19.94,0.181909,31.45,4,S4
-57.0,7.0,31.0,8.2,0.311125,31.63,4,S14
-37.0,-35.0,-38.0,42.56,0.33543,32.66,2,S14
-28.0,57.0,12.0,0.91,1.703421,31.93,2,S3
-65.0,-2.0,-3.0,-43.05,0.14993,32.95,4,S4
-25.0,-59.0,-7.0,-30.67,0.26763,32.27,1,S14
-30.0,56.0,10.0,5.28,3.626859,32.15,2,S3
-17.0,60.0,9.0,-31.52,2.355073,32.49,2,S4
-30.0,-7.0,-56.0,-66.59,0.158884,32.91,1,S4
-55.0,-27.0,18.0,17.03,1.834109,32.83,1,S3
-33.0,-8.0,-55.0,-33.69,0.143534,32.91,1,S4
-69.0,-6.0,4.0,20.58,1.276564,32.87,1,S3
-63.0,2.0,19.0,7.23,0.197259,31.39,4,S4
-65.0,-1.0,3.0,17.76,0.181909,31.47,4,S4
-46.0,40.0,17.0,59.15,2.269369,32.47,2,S4
-54.0,4.0,35.0,11.81,0.308566,32.49,4,S14
-32.0,-7.0,-56.0,-58.11,0.121788,33.07,1,S4
-50.0,-35.0,-23.0,-16.25,0.286819,32.11,1,S14
0.0,-53.0,34.0,-2.44,0.392331,30.69,3,S3
-64.0,13.0,-6.0,3.67,0.449987,30.63,4,S3
-52.0,47.0,3.0,-29.95,0.342362,32.71,2,S3
-48.0,-37.0,-23.0,-35.39,0.286819,32.09,1,S14
0.0,-58.0,25.0,5.12,1.024058,33.27,1,S3
-65.0,0.0,9.0,-29.0,0.281702,32.21,1,S14
57.0,23.0,17.0,8.18,0.2245,33.63,4,S2
-56.0,7.0,31.0,9.35,0.309845,31.61,4,S14
-64.0,-7.0,-17.0,25.54,0.192143,32.83,1,S4
56.0,23.0,17.0,16.5,0.206561,33.65,4,S2
-52.0,-38.0,-17.0,13.35,0.337989,32.66,2,S14
60.0,0.0,-19.0,-28.35,0.175809,34.15,3,S2
-65.0,-2.0,-1.0,-33.75,0.152488,32.95,4,S4
-70.0,-6.0,21.0,57.95,0.401299,31.07,4,S3
-45.0,45.0,10.0,-1.69,0.339799,30.93,4,S3
-53.0,5.0,36.0,-27.61,0.320079,32.41,4,S14
-37.0,-7.0,-53.0,-20.24,0.312404,32.09,1,S14
-64.0,-8.0,-14.0,16.95,0.189584,32.84,1,S4
-17.0,61.0,9.0,-89.08,2.161159,32.25,2,S4
7.0,13.0,48.0,-46.49,1.15107,35.77,1,S2
-60.0,-27.0,8.0,2.91,0.372529,32.87,2,S14
-15.0,62.0,6.0,11.24,0.3188,31.99,3,S14
-54.0,4.0,36.0,11.72,0.313683,32.5,4,S14
-30.0,-41.0,-39.0,-11.23,0.289377,32.18,1,S14
-27.0,-45.0,-39.0,28.45,0.299611,32.13,1,S14
-56.0,8.0,31.0,11.12,0.312404,31.67,4,S14
-44.0,-1.0,46.0,-4.32,0.369268,30.97,3,S3
-19.0,-4.0,-62.0,44.59,0.121788,33.05,1,S4
59.0,0.0,-21.0,-4.87,0.203999,34.23,3,S2
-49.0,1.0,42.0,-3.11,0.167838,32.83,3,S4
-60.0,-19.0,-15.0,-13.73,0.824182,33.34,1,S3
-65.0,-3.0,-2.0,-51.05,0.153767,32.93,4,S4
-64.0,14.0,-6.0,8.37,0.458956,30.55,4,S3
-21.0,-10.0,-60.0,13.67,0.124346,32.97,1,S4
-20.0,-6.0,-61.0,-11.79,0.121788,33.09,1,S4
-40.0,-46.0,-21.0,-31.11,0.270188,32.23,1,S14
-29.0,57.0,9.0,4.66,1.850765,31.95,2,S3
-51.0,-34.0,-17.0,-37.3,0.293215,32.21,1,S14
-47.0,-38.0,-24.0,11.21,0.286819,32.21,1,S14
-63.0,-4.0,16.0,-1.83,0.401299,31.13,4,S3
-37.0,-7.0,-52.0,45.55,0.313683,32.09,1,S14
51.0,22.0,30.0,-31.61,0.1284,35.89,1,S2
-21.0,-11.0,-60.0,-43.31,0.125626,33.0,1,S4
-64.0,-2.0,11.0,3.45,0.276585,32.23,1,S14
-19.0,-6.0,-61.0,35.08,0.121788,33.05,1,S4
-25.0,59.0,10.0,-36.75,2.723781,32.66,2,S4
-54.0,-28.0,21.0,-18.74,1.868703,32.79,1,S3
-44.0,19.0,43.0,34.42,0.172955,32.77,3,S4
-64.0,13.0,-5.0,11.24,0.45255,30.63,4,S3
-34.0,-54.0,-12.0,9.97,0.306008,32.15,1,S14
54.0,26.0,21.0,-17.88,0.096367,35.91,1,S2
-38.0,51.0,4.0,-73.55,2.108713,32.71,2,S4
63.0,0.0,-8.0,4.61,0.237313,34.23,3,S2
62.0,1.0,12.0,3.94,0.182216,34.29,4,S2
-56.0,8.0,31.0,3.84,0.311125,31.61,4,S14
-43.0,-40.0,-25.0,-18.35,0.285539,32.15,1,S14
-56.0,-31.0,9.0,-9.3,1.604764,32.84,1,S3
-56.0,8.0,31.0,-32.07,0.308566,31.73,4,S14
16.0,-60.0,16.0,27.87,1.074091,32.77,2,S2
-47.0,-4.0,43.0,4.3,0.392331,30.85,3,S3
-62.0,2.0,19.0,-28.06,0.19598,31.39,4,S4
-54.0,-4.0,35.0,-0.52,0.383362,30.91,3,S3
-31.0,56.0,8.0,4.07,5.020006,32.27,2,S3
-18.0,61.0,9.0,-52.97,2.36019,32.39,2,S4
-33.0,-14.0,-4.0,4.64,2.448625,32.05,2,S3
-37.0,54.0,-19.0,-15.27,2.103076,32.68,2,S4
54.0,26.0,22.0,13.58,0.819107,35.68,1,S2
-19.0,-4.0,-61.0,-68.18,0.121788,33.07,1,S4
17.0,-58.0,12.0,16.37,0.637088,34.0,2,S2
15.0,-60.0,13.0,19.44,1.086905,32.84,2,S2
-58.0,-31.0,18.0,23.49,2.105249,32.83,1,S3
-24.0,-57.0,14.0,-56.04,0.280422,32.11,1,S14
-33.0,-54.0,-3.0,13.78,0.289377,32.16,1,S14
-54.0,-31.0,14.0,9.23,0.364143,33.23,1,S3
-21.0,60.0,11.0,23.08,0.320079,31.97,3,S14
-33.0,-6.0,-55.0,-9.09,0.114113,33.11,1,S4
57.0,23.0,17.0,9.75,0.257814,33.65,4,S2
-55.0,-31.0,15.0,11.02,0.364143,33.23,1,S3
-54.0,4.0,36.0,-20.7,0.309845,32.55,4,S14
-44.0,-28.0,-39.0,-11.08,0.291936,32.13,1,S14
-16.0,60.0,13.0,-46.07,2.589467,32.39,2,S4
-17.0,61.0,10.0,-11.62,2.040396,32.27,2,S4
-17.0,62.0,9.0,34.6,2.114588,32.29,2,S4
-40.0,-22.0,-35.0,0.08,0.33671,32.77,2,S14
-34.0,-53.0,7.0,29.04,2.292312,32.66,1,S3
-48.0,-43.0,1.0,15.76,0.285539,32.09,1,S14
-40.0,-49.0,-10.0,26.73,0.289377,32.09,1,S14
-33.0,-55.0,0.0,25.41,0.263792,32.25,1,S14
-63.0,2.0,17.0,-36.97,0.197259,31.41,4,S4
-64.0,13.0,-5.0,9.36,0.444862,30.63,4,S3
-48.0,19.0,39.0,-90.06,0.176793,32.79,3,S4
35.0,-52.0,16.0,16.11,0.547431,33.16,1,S3
-54.0,-7.0,33.0,34.95,4.282574,32.68,1,S3
49.0,12.0,-38.0,12.2,0.101492,35.73,1,S2
-27.0,-33.0,-16.0,163.55,0.33543,32.63,2,S14
-11.0,62.0,15.0,-31.71,2.182385,32.29,2,S4
-34.0,-43.0,-34.0,-14.89,0.265071,32.29,1,S14
-68.0,-1.0,-18.0,-54.32,4.660543,32.34,2,S3
-65.0,-1.0,5.0,7.29,0.272747,32.27,1,S14
-65.0,0.0,-4.0,17.24,0.152488,32.75,4,S4
-19.0,-8.0,-62.0,-89.53,0.11923,33.05,1,S4
-17.0,-7.0,-61.0,34.08,0.121788,33.07,1,S4
-33.0,-8.0,-55.0,14.59,0.13458,32.93,1,S4
-32.0,56.0,9.0,3.38,2.987593,32.13,2,S3
-53.0,5.0,36.0,-3.19,0.321359,32.43,4,S14
58.0,22.0,-1.0,22.79,0.104055,35.68,1,S2
-32.0,-7.0,-56.0,34.8,0.121788,33.05,1,S4
-56.0,7.0,32.0,-35.58,0.316242,31.73,4,S14
-46.0,0.0,44.0,2.42,0.375674,30.97,3,S3
59.0,25.0,-3.0,-0.63,0.093804,35.63,1,S2
-32.0,-9.0,-56.0,28.2,0.155047,32.89,1,S4
-43.0,-1.0,47.0,-4.32,0.36158,30.97,3,S3
4.0,-52.0,11.0,6.19,0.185747,31.43,4,S4
-52.0,1.0,38.0,13.77,1.208658,32.87,1,S3
-31.0,-55.0,8.0,23.53,0.26763,32.25,1,S14
-46.0,44.0,11.0,2.2,0.344924,30.93,4,S3
12.0,-56.0,24.0,16.9,0.598682,33.23,1,S3
-35.0,55.0,-17.0,-22.26,2.442057,32.5,2,S4
-64.0,13.0,-6.0,5.27,0.469206,30.51,4,S3
-20.0,60.0,13.0,-5.29,0.3188,31.99,3,S14
62.0,0.0,11.0,-25.84,0.127119,35.53,1,S2
-30.0,56.0,10.0,12.0,3.616609,32.16,2,S3
15.0,-59.0,16.0,135.94,0.73447,33.63,2,S2
-21.0,-11.0,-60.0,31.66,0.125626,32.97,1,S4
-19.0,60.0,12.0,-5.34,0.317521,31.99,3,S14
-55.0,-31.0,-5.0,10.75,0.339268,32.77,2,S14
-19.0,-4.0,-61.0,6.86,0.120509,33.07,1,S4
-27.0,57.0,10.0,-4.77,2.047592,31.97,2,S3
-46.0,51.0,9.0,-31.86,0.639613,32.57,2,S3
-56.0,7.0,31.0,14.09,0.316242,31.67,4,S14
-62.0,-21.0,-11.0,-53.61,1.003657,33.25,1,S3
-47.0,44.0,11.0,-3.43,0.353893,30.97,4,S3
-37.0,-8.0,-52.0,18.87,0.307287,32.16,1,S14
-54.0,4.0,35.0,2.18,0.316242,32.53,4,S14
-30.0,-55.0,8.0,16.0,0.266351,32.25,1,S14
-33.0,-8.0,-55.0,-28.92,0.155047,32.91,1,S4
-18.0,61.0,12.0,-10.73,0.3188,31.89,3,S14
61.0,0.0,-15.0,11.71,0.179653,34.16,3,S2
-31.0,-52.0,-19.0,-49.04,0.202376,32.79,1,S4
-45.0,-45.0,12.0,23.35,0.303449,32.91,2,S14
-65.0,-2.0,26.0,-22.27,1.370095,32.83,1,S3
-23.0,-59.0,-7.0,-9.07,0.26763,32.25,1,S14
-44.0,0.0,46.0,-13.09,0.367987,30.97,3,S3
-56.0,-1.0,23.0,-45.43,0.282981,32.23,1,S14
54.0,11.0,-30.0,13.95,0.148901,35.93,1,S2
-54.0,-5.0,35.0,-10.93,0.365424,30.95,3,S3
-16.0,62.0,5.0,-47.56,2.141451,32.34,2,S4
17.0,-60.0,15.0,-117.71,0.74472,34.09,2,S2
14.0,-59.0,17.0,3.07,0.185747,31.45,4,S4
-29.0,57.0,10.0,-13.14,1.880234,31.95,2,S3
-64.0,-1.0,12.0,-44.12,0.279143,32.25,1,S14
15.0,-61.0,13.0,15.56,0.711406,34.05,2,S2
-24.0,-12.0,-59.0,27.56,0.128184,32.95,1,S4
29.0,57.0,3.0,19.46,0.247564,34.09,3,S2
-43.0,-1.0,47.0,6.24,0.364143,30.93,3,S3
57.0,23.0,17.0,14.12,0.216812,33.63,4,S2
-45.0,-46.0,-10.0,15.24,0.293215,32.16,1,S14
-53.0,-34.0,-17.0,-4.95,0.297053,32.21,1,S14
57.0,26.0,-7.0,18.41,0.098929,35.65,1,S2
53.0,25.0,11.0,19.62,0.192467,35.87,1,S2
-55.0,-4.0,34.0,6.21,0.433331,33.18,1,S3
63.0,0.0,-5.0,28.68,0.18606,34.31,3,S2
-32.0,-8.0,-56.0,13.36,0.135859,32.91,1,S4
-21.0,-11.0,-60.0,41.48,0.125626,32.99,1,S4
-65.0,0.0,-6.0,26.94,0.152488,32.73,4,S4
-33.0,-54.0,8.0,4.15,0.432049,30.83,3,S3
-65.0,-2.0,-2.0,48.45,0.151209,32.95,4,S4
-31.0,-55.0,9.0,20.81,0.265071,32.05,1,S14
43.0,27.0,42.0,-19.03,0.51415,35.84,1,S2
-45.0,-47.0,2.0,-51.51,0.288098,32.15,1,S14
63.0,0.0,-6.0,12.84,0.201436,34.34,3,S2
-32.0,-9.0,-56.0,-40.38,0.178072,32.89,1,S4
-54.0,4.0,36.0,-28.83,0.312404,32.5,4,S14
-59.0,-25.0,2.0,20.99,0.340547,32.77,2,S14
56.0,23.0,17.0,19.06,0.170684,34.34,4,S2
15.0,-59.0,16.0,-19.6,0.589679,33.93,2,S2
30.0,55.0,-15.0,57.93,0.257814,34.07,3,S2
-20.0,-11.0,-60.0,10.13,0.126905,33.0,1,S4
-64.0,13.0,-6.0,6.5,0.467925,30.51,4,S3
-96.0,45.0,-52.0,8.17,4.264924,32.43,2,S3
-19.0,60.0,12.0,-11.66,0.3188,31.93,3,S14
46.0,-49.0,-3.0,-49.91,0.569178,33.79,2,S2
-54.0,4.0,35.0,-20.45,0.306008,32.5,4,S14
-33.0,-55.0,-1.0,-111.99,0.265071,32.25,1,S14
-38.0,3.0,58.0,-166.77,0.19598,31.39,4,S4
62.0,1.0,12.0,-13.24,0.171965,34.43,4,S2
-45.0,-7.0,45.0,12.95,5.368177,32.53,1,S3
-32.0,-7.0,-56.0,-27.31,0.11923,33.11,1,S4
-37.0,-8.0,-53.0,-1.08,0.306008,32.15,1,S14
-47.0,-4.0,43.0,-0.5,0.392331,30.85,3,S3
-46.0,45.0,9.0,1.08,0.338518,30.93,4,S3
-64.0,12.0,-6.0,-7.15,0.471768,30.47,4,S3
-42.0,-50.0,-8.0,-6.27,0.313683,32.15,1,S14
-56.0,-30.0,13.0,4.12,0.369268,33.25,1,S3
56.0,19.0,23.0,-16.45,0.187341,35.83,1,S2
-50.0,-15.0,-29.0,8.61,0.350049,32.68,2,S3
15.0,-60.0,12.0,1.21,1.003618,33.33,2,S2
-65.0,-1.0,6.0,-21.54,0.187026,31.47,4,S4
-33.0,-43.0,-37.0,-48.74,0.270188,32.25,1,S14
60.0,0.0,-19.0,-2.75,0.145057,34.09,3,S2
-34.0,-6.0,-54.0,37.6,0.117951,33.05,1,S4
-33.0,-55.0,4.0,31.43,0.275305,32.25,1,S14
-30.0,-11.0,-56.0,27.09,0.126905,33.11,1,S4
15.0,-59.0,13.0,-16.56,1.094593,32.84,2,S2
-46.0,44.0,11.0,4.0,0.347487,30.95,4,S3
-35.0,-5.0,-54.0,10.5,0.117951,33.11,1,S4
-18.0,-8.0,-61.0,42.91,0.120509,33.05,1,S4
-44.0,-44.0,17.0,26.56,0.317521,33.03,2,S14
-54.0,4.0,36.0,19.96,0.317521,32.55,4,S14
61.0,0.0,-16.0,-20.09,0.184779,34.16,3,S2
-66.0,0.0,-5.0,25.28,0.157605,32.77,4,S4
-54.0,4.0,36.0,22.76,0.3188,32.5,4,S14
-56.0,7.0,31.0,-8.67,0.317521,31.73,4,S14
21.0,-49.0,34.0,5.36,0.579463,33.21,1,S3
-65.0,-5.0,7.0,-53.93,1.259908,32.84,1,S3
-31.0,-55.0,8.0,23.06,0.266351,32.25,1,S14
-44.0,-44.0,16.0,-24.81,0.30217,33.07,2,S14
-43.0,-7.0,-38.0,-5.79,4.64588,32.33,2,S3
-65.0,-2.0,-2.0,31.86,0.153767,32.91,4,S4
-45.0,15.0,45.0,0.21,2.308968,32.5,2,S3
14.0,-59.0,13.0,-49.36,0.997212,32.99,2,S2
-65.0,-2.0,-3.0,-17.06,0.156326,32.91,4,S4
-61.0,-4.0,21.0,-96.57,1.367533,32.83,1,S3
-19.0,60.0,12.0,16.15,0.317521,32.0,3,S14
11.0,-57.0,24.0,-38.86,0.599963,33.21,1,S3
-56.0,8.0,31.0,10.51,0.314962,31.67,4,S14
62.0,0.0,12.0,0.95,0.145057,34.63,4,S2
-30.0,56.0,10.0,0.89,3.62814,32.15,2,S3
-16.0,60.0,12.0,-1.92,2.14273,32.29,2,S4
-19.0,60.0,12.0,-7.83,0.3188,31.99,3,S14
-61.0,-20.0,-8.0,-1.73,0.720401,33.43,1,S3
-63.0,-4.0,15.0,45.88,0.401299,31.09,4,S3
47.0,20.0,-37.0,8.41,0.101492,35.65,1,S2
63.0,0.0,12.0,10.74,0.154027,34.61,4,S2
-64.0,-18.0,-6.0,6.13,0.758838,33.45,1,S3
-23.0,-47.0,-39.0,-23.63,0.291936,32.03,1,S14
62.0,0.0,12.0,-31.37,0.177091,34.39,4,S2
-65.0,0.0,6.0,2.16,0.184468,31.47,4,S4
-32.0,-9.0,-56.0,30.37,0.152488,32.87,1,S4
44.0,-7.0,-11.0,-158.62,0.082272,35.53,1,S2
-37.0,-7.0,-52.0,-22.99,0.308566,32.13,1,S14
-65.0,0.0,-7.0,-27.34,0.151209,32.77,4,S4
-50.0,19.0,37.0,27.82,0.185747,32.77,3,S4
-51.0,18.0,34.0,67.77,0.170397,32.75,3,S4
-64.0,12.0,-6.0,5.15,0.471768,30.49,4,S3
48.0,28.0,26.0,6.41,0.110461,35.89,1,S2
-64.0,-2.0,9.0,10.34,0.192143,31.45,4,S4
56.0,23.0,17.0,6.89,0.173247,34.23,4,S2
46.0,35.0,27.0,20.31,0.127119,35.89,1,S2
-15.0,62.0,3.0,-23.17,0.316242,31.99,3,S14
-30.0,-8.0,-57.0,-81.55,0.158884,32.89,1,S4
-58.0,-28.0,13.0,102.8,0.208772,32.73,1,S4
-46.0,1.0,45.0,7.08,0.485931,33.16,1,S3
-55.0,-34.0,-4.0,10.71,3.62814,32.68,1,S3
-25.0,58.0,5.0,12.09,2.526483,32.71,2,S4
-13.0,62.0,9.0,182.2,2.123543,32.33,2,S4
-50.0,-38.0,-19.0,1.69,0.280422,32.23,1,S14
-33.0,-8.0,-55.0,-1.8,0.167838,32.91,1,S4
-54.0,3.0,36.0,-9.14,0.313683,32.5,4,S14
-16.0,61.0,10.0,-45.8,2.178547,32.29,2,S4
-56.0,8.0,32.0,11.98,0.312404,31.67,4,S14
-25.0,-59.0,-8.0,-32.19,0.271468,32.29,1,S14
18.0,-20.0,57.0,-10.26,0.631994,33.23,1,S3
-36.0,53.0,12.0,-47.48,3.511626,32.5,2,S3
-25.0,-59.0,-8.0,-44.95,0.272747,32.31,1,S14
-48.0,-36.0,-24.0,30.7,0.286819,32.09,1,S14
-33.0,-7.0,-55.0,14.19,0.11923,33.09,1,S4
-37.0,-7.0,-52.0,33.59,0.314962,32.09,1,S14
-17.0,-7.0,-61.0,-60.79,0.120509,33.07,1,S4
-19.0,-11.0,-61.0,13.15,0.125626,32.99,1,S4
-32.0,55.0,9.0,-37.44,2.623278,32.5,2,S3
-43.0,-45.0,14.0,-2.37,0.303449,33.09,2,S14
-20.0,-6.0,-60.0,10.12,0.121788,33.07,1,S4
-16.0,62.0,7.0,-0.72,0.317521,31.99,3,S14
33.0,54.0,-8.0,-17.65,0.230906,34.0,3,S2
-65.0,-3.0,-3.0,-45.55,0.152488,32.93,4,S4
-65.0,-2.0,-4.0,-22.08,0.151209,32.93,4,S4
57.0,22.0,17.0,-24.52,0.338538,33.71,4,S2
-17.0,62.0,13.0,79.72,2.00382,32.25,2,S4
56.0,18.0,19.0,-20.27,0.482116,35.83,1,S2
-45.0,-3.0,46.0,-8.73,0.417956,30.85,3,S3
-30.0,57.0,11.0,3.88,2.07578,31.95,2,S3
-56.0,6.0,30.0,29.8,0.308566,31.59,4,S14
63.0,1.0,-14.0,7.62,0.193748,34.31,3,S2
-26.0,56.0,10.0,9.15,4.980288,32.29,2,S3
-44.0,19.0,43.0,31.91,0.171676,32.75,3,S4
-47.0,-38.0,-22.0,27.55,0.289377,32.15,1,S14
55.0,25.0,20.0,-6.55,0.101492,35.91,1,S2
62.0,0.0,12.0,16.43,0.160433,34.59,4,S2
-61.0,1.0,20.0,-36.23,0.188305,31.43,4,S4
-3.0,-53.0,34.0,-102.15,0.371831,30.89,3,S3
-50.0,-37.0,-17.0,-48.56,0.304728,32.21,1,S14
60.0,-1.0,-19.0,-14.86,0.168121,34.11,3,S2
54.0,21.0,25.0,36.06,0.296254,35.83,1,S2
-65.0,-1.0,3.0,-38.6,0.183188,31.47,4,S4
-50.0,6.0,41.0,8.9,0.635838,33.37,1,S3
-45.0,45.0,9.0,0.75,0.328268,30.85,4,S3
45.0,11.0,-44.0,-13.72,0.119431,35.61,1,S2
-16.0,62.0,8.0,5.78,0.3188,31.97,3,S14
-34.0,-9.0,-54.0,19.18,0.147372,32.91,1,S4
-47.0,-4.0,43.0,7.53,0.396174,30.83,3,S3
-55.0,-5.0,34.0,0.93,0.364143,30.97,3,S3
-54.0,7.0,35.0,6.07,0.322638,32.37,4,S14
-42.0,-2.0,48.0,-8.75,0.410268,33.13,1,S3
-64.0,-4.0,10.0,9.34,0.33543,33.11,2,S14
-65.0,0.0,6.0,-24.03,0.187026,31.47,4,S4
-50.0,0.0,42.0,-5.18,0.169117,32.79,3,S4
-56.0,7.0,31.0,-27.87,0.313683,31.65,4,S14
-28.0,16.0,55.0,11.37,1.054808,32.55,2,S3
-63.0,1.0,17.0,-11.15,0.334151,33.21,2,S14
-63.0,2.0,17.0,-8.29,0.181909,31.45,4,S4
-56.0,7.0,32.0,-16.25,0.321359,31.67,4,S14
-65.0,0.0,5.0,6.92,0.188305,31.47,4,S4
28.0,57.0,3.0,-26.85,0.268065,34.11,3,S2
-44.0,-28.0,-39.0,-6.65,0.290656,32.13,1,S14
-65.0,-3.0,-3.0,11.87,0.153767,32.95,4,S4
16.0,-59.0,12.0,-2.49,0.74472,33.57,2,S2
57.0,23.0,17.0,13.75,0.211686,33.66,4,S2
54.0,26.0,21.0,20.69,0.096367,35.93,1,S2
-46.0,-44.0,13.0,-4.49,0.297053,32.97,2,S14
-62.0,-20.0,-8.0,5.4,0.742182,33.45,1,S3
-44.0,-28.0,-39.0,22.16,0.291936,32.15,1,S14
-54.0,4.0,35.0,18.81,0.312404,32.49,4,S14
19.0,-59.0,16.0,-40.75,0.603774,33.87,2,S2
-63.0,-4.0,15.0,19.7,0.401299,31.13,4,S3
16.0,-59.0,14.0,-6.77,1.174035,32.63,2,S2
57.0,26.0,-3.0,-58.8,0.106617,35.71,1,S2
-19.0,-8.0,-61.0,8.64,0.121788,33.07,1,S4
27.0,55.0,-14.0,-11.3,0.260377,34.07,3,S2
-19.0,60.0,12.0,-63.81,0.317521,31.97,3,S14
-25.0,-58.0,-8.0,-2.77,0.271468,32.27,1,S14
57.0,25.0,10.0,-4.16,0.101492,35.66,1,S2
-38.0,20.0,-7.0,-6.99,0.348768,32.71,2,S3
-53.0,4.0,36.0,-37.2,0.316242,32.57,4,S14
-44.0,18.0,43.0,55.34,0.172955,32.75,3,S4
60.0,0.0,-20.0,14.57,0.151464,34.11,3,S2
-54.0,4.0,36.0,-18.6,0.316242,32.53,4,S14
-56.0,7.0,32.0,10.34,0.314962,31.73,4,S14
-42.0,-2.0,48.0,-2.1,0.391049,33.11,1,S3
-46.0,44.0,11.0,4.37,0.342362,30.93,4,S3
-37.0,-8.0,-53.0,27.22,0.307287,32.09,1,S14
48.0,12.0,-39.0,84.36,0.097648,35.66,1,S2
-65.0,-1.0,10.0,-25.64,0.192143,31.49,4,S4
-23.0,-58.0,11.0,4.11,0.286819,32.03,1,S14
-28.0,-56.0,13.0,26.01,0.26763,32.07,1,S14
-22.0,56.0,16.0,-8.87,2.438375,32.05,2,S3
-20.0,-11.0,-60.0,37.09,0.125626,32.97,1,S4
1.0,-54.0,30.0,51.71,0.417956,30.71,3,S3
-44.0,18.0,43.0,17.69,0.172955,32.73,3,S4
-64.0,-4.0,15.0,-7.67,0.401299,31.09,4,S3
-64.0,13.0,-5.0,3.02,0.442299,30.65,4,S3
47.0,24.0,28.0,12.78,0.280878,35.81,1,S2
-65.0,0.0,-6.0,14.87,0.160163,32.81,4,S4
-46.0,-40.0,-21.0,30.23,0.285539,32.23,1,S14
-52.0,-1.0,38.0,-6.93,0.447425,33.16,1,S3
-54.0,4.0,35.0,0.7,0.311125,32.5,4,S14
63.0,0.0,-12.0,-35.72,0.191185,34.18,3,S2
-19.0,-6.0,-61.0,27.18,0.121788,33.09,1,S4
16.0,-59.0,15.0,-4.57,1.063841,32.97,2,S2
-56.0,-30.0,13.0,-4.04,0.369268,33.29,1,S3
-28.0,57.0,9.0,2.58,1.735452,31.91,2,S3
-39.0,35.0,-14.0,12.68,2.912841,32.47,2,S3
56.0,25.0,18.0,10.35,0.105336,35.91,1,S2
62.0,0.0,11.0,8.5,0.241157,33.97,4,S2
-23.0,-58.0,9.0,32.43,0.285539,32.03,1,S14
-19.0,62.0,3.0,152.97,2.474036,32.66,2,S4
-46.0,-42.0,-18.0,-40.79,0.280422,32.23,1,S14
-18.0,58.0,0.0,57.6,2.846276,32.53,2,S4
-56.0,-19.0,-24.0,-318.63,0.1026,33.07,1,S4
-30.0,57.0,10.0,-2.38,1.548389,31.91,2,S3
-47.0,-39.0,-21.0,-2.09,0.286819,32.09,1,S14
-56.0,-34.0,8.0,17.03,0.348223,32.84,2,S14
-55.0,-34.0,8.0,-5.42,0.352061,32.83,2,S14
-51.0,-37.0,-18.0,-0.4,0.285539,32.23,1,S14
-55.0,3.0,-53.0,31.01,3.570484,32.45,2,S3
-44.0,18.0,43.0,-64.75,0.175513,32.75,3,S4
58.0,25.0,-3.0,-19.2,0.093804,35.63,1,S2
-55.0,-9.0,-26.0,-78.12,0.121788,33.07,1,S4
-54.0,7.0,35.0,17.44,0.320079,32.37,4,S14
-34.0,-7.0,-54.0,-25.68,0.164001,32.89,1,S4
1.0,-55.0,31.0,72.29,0.374393,30.73,3,S3
-21.0,-56.0,18.0,77.28,0.976651,33.27,1,S3
57.0,22.0,17.0,-40.68,0.24372,33.63,4,S2
-64.0,13.0,-5.0,0.69,0.443581,30.65,4,S3
-34.0,-6.0,-55.0,-32.08,0.115392,33.09,1,S4
-48.0,19.0,39.0,42.91,0.176793,32.77,3,S4
-18.0,61.0,12.0,5.33,0.320079,31.97,3,S14
-29.0,55.0,5.0,-5.15,4.71763,32.27,2,S3
-64.0,14.0,-5.0,-11.43,0.442299,30.65,4,S3
-53.0,5.0,36.0,19.7,0.320079,32.47,4,S14
-17.0,-7.0,-62.0,-55.41,0.121788,33.07,1,S4
-65.0,-1.0,2.0,-26.49,0.277864,32.29,1,S14
-58.0,-32.0,-18.0,44.78,0.266351,32.27,1,S14
-28.0,-56.0,11.0,10.07,0.280422,32.09,1,S14
-33.0,-6.0,-55.0,15.77,0.114113,33.11,1,S4
-62.0,1.0,19.0,-22.41,0.193422,31.43,4,S4
49.0,13.0,-38.0,-54.79,0.124556,35.66,1,S2
-54.0,4.0,36.0,-24.56,0.316242,32.53,4,S14
-29.0,59.0,1.0,-25.87,2.836348,32.59,2,S4
-52.0,1.0,38.0,15.45,1.175345,32.99,1,S3
-20.0,-6.0,-61.0,-60.56,0.121788,33.07,1,S4
63.0,0.0,-2.0,31.33,0.23475,34.41,3,S2
-37.0,-7.0,-53.0,28.38,0.306008,32.13,1,S14
-65.0,-2.0,-2.0,25.53,0.160163,32.84,4,S4
-46.0,-37.0,-15.0,-6.99,0.290656,32.15,1,S14
14.0,-61.0,6.0,13.9,0.988242,33.33,2,S2
54.0,26.0,20.0,22.61,0.491017,35.79,1,S2
-64.0,-4.0,8.0,9.94,0.272747,32.27,1,S14
-22.0,-12.0,-60.0,20.59,0.124346,33.0,1,S4
-46.0,-38.0,-28.0,20.58,0.289377,32.09,1,S14
-62.0,1.0,20.0,29.43,0.188305,31.39,4,S4
-57.0,-10.0,-27.0,45.25,4.040417,32.41,2,S3
-30.0,-7.0,-57.0,-35.78,0.158884,32.89,1,S4
-25.0,-58.0,-8.0,-47.56,0.272747,32.25,1,S14
-31.0,54.0,10.0,0.77,5.314695,32.34,2,S3
-33.0,-9.0,-55.0,-14.19,0.14993,32.91,1,S4
40.0,37.0,33.0,20.38,0.558996,35.81,1,S2
-55.0,-34.0,-3.0,-14.78,3.265625,32.81,1,S3
54.0,11.0,-30.0,14.87,0.146339,35.93,1,S2
-42.0,-34.0,-36.0,23.12,0.277864,32.07,1,S14
-46.0,-35.0,-29.0,26.27,0.291936,32.15,1,S14
62.0,1.0,11.0,8.77,0.250126,34.0,4,S2
-56.0,8.0,31.0,-3.62,0.307287,31.73,4,S14
-64.0,14.0,-5.0,9.5,0.442299,30.63,4,S3
-60.0,-11.0,22.0,-3.85,2.807778,32.75,1,S3
-53.0,4.0,36.0,-29.41,0.317521,32.53,4,S14
59.0,22.0,6.0,13.48,0.501336,35.84,1,S2
-31.0,55.0,10.0,-11.73,3.268188,32.13,2,S3
-50.0,7.0,40.0,-12.4,0.605088,33.31,1,S3
-52.0,1.0,38.0,-7.77,1.175345,32.99,1,S3
-48.0,-34.0,-36.0,13.91,0.337989,32.66,2,S14
-25.0,-58.0,-8.0,31.91,0.271468,32.31,1,S14
-44.0,-44.0,13.0,1.42,0.306008,33.11,2,S14
-63.0,-4.0,15.0,-37.16,0.402581,31.07,4,S3
-43.0,-45.0,-27.0,91.67,0.26763,32.23,1,S14
-54.0,5.0,36.0,-23.57,0.320079,32.5,4,S14
-52.0,-21.0,-8.0,-4.08,0.350049,32.66,2,S3
21.0,11.0,58.0,-21.48,0.963897,35.68,1,S2
-62.0,-11.0,-14.0,-7.21,0.1026,33.09,1,S4
9.0,-57.0,25.0,6.38,0.593557,33.16,1,S3
-19.0,-11.0,-61.0,1.71,0.124346,33.0,1,S4
-64.0,13.0,-5.0,-6.02,0.448706,30.65,4,S3
-20.0,-6.0,-61.0,16.62,0.120509,33.07,1,S4
57.0,16.0,23.0,-12.41,0.211686,35.77,1,S2
56.0,19.0,23.0,11.22,0.179653,35.84,1,S2
62.0,-1.0,12.0,-21.73,0.143776,34.73,4,S2
-53.0,0.0,37.0,36.59,0.5038,33.18,1,S3
-34.0,-9.0,-54.0,35.96,0.148651,32.91,1,S4
57.0,22.0,17.0,-20.06,0.277034,33.68,4,S2
-16.0,62.0,6.0,3.37,0.320079,31.95,3,S14
-53.0,7.0,36.0,-10.82,0.321359,32.34,4,S14
-32.0,55.0,11.0,14.0,3.902329,32.43,2,S3
-63.0,12.0,-10.0,-21.12,0.465362,30.45,4,S3
-47.0,48.0,-12.0,-88.16,2.189301,32.21,2,S4
-65.0,0.0,-6.0,27.75,0.146092,32.75,4,S4
60.0,0.0,-16.0,-0.6,0.193748,34.21,3,S2
-33.0,-8.0,-55.0,16.86,0.135859,32.93,1,S4
-20.0,60.0,12.0,-49.28,2.408799,32.37,2,S4
-49.0,1.0,42.0,-40.32,0.169117,32.84,3,S4
-54.0,4.0,35.0,17.19,0.314962,32.5,4,S14
-65.0,0.0,9.0,-17.9,0.184468,31.47,4,S4
-64.0,-2.0,9.0,-15.26,0.282981,32.23,1,S14
-19.0,-6.0,-61.0,-12.45,0.120509,33.09,1,S4
55.0,17.0,24.0,-4.84,0.228344,35.75,1,S2
-65.0,-2.0,-3.0,15.51,0.14993,32.91,4,S4
-33.0,-8.0,-55.0,10.42,0.142255,32.89,1,S4
-50.0,0.0,42.0,27.19,0.171676,32.83,3,S4
-19.0,60.0,12.0,3.3,0.3188,31.99,3,S14
-50.0,6.0,41.0,8.99,0.643525,33.41,1,S3
15.0,-59.0,15.0,-29.68,1.01515,33.37,2,S2
-54.0,4.0,36.0,10.66,0.314962,32.5,4,S14
-61.0,-19.0,-15.0,7.92,0.865182,33.27,1,S3
-42.0,-2.0,49.0,37.49,0.406424,33.13,1,S3
-65.0,-2.0,-3.0,19.9,0.156326,32.87,4,S4
-20.0,60.0,5.0,96.01,2.827394,32.43,2,S4
-25.0,-12.0,-58.0,43.13,0.126905,32.93,1,S4
-49.0,-2.0,40.0,3.92,0.170397,32.79,3,S4
-64.0,14.0,-5.0,4.82,0.447425,30.63,4,S3
-65.0,-2.0,-3.0,-28.4,0.158884,32.87,4,S4
-65.0,0.0,8.0,-32.51,0.194701,31.43,4,S4
-43.0,19.0,43.0,29.71,0.18063,32.79,3,S4
62.0,9.0,11.0,-3.63,0.171965,35.89,1,S2
-65.0,0.0,7.0,15.94,0.187026,31.49,4,S4
-65.0,-4.0,10.0,35.98,1.320127,32.84,1,S3
-15.0,62.0,6.0,6.2,0.321359,31.95,3,S14
-17.0,62.0,10.0,38.02,2.302627,32.34,2,S4
-54.0,4.0,36.0,-21.78,0.3188,32.55,4,S14
-59.0,-34.0,-5.0,0.62,0.35334,32.81,2,S14
-29.0,56.0,9.0,2.68,2.050155,31.97,2,S3
15.0,-59.0,16.0,33.65,0.980485,33.49,2,S2
-46.0,45.0,9.0,-4.68,0.334674,30.93,4,S3
-64.0,13.0,-6.0,8.15,0.466643,30.51,4,S3
-49.0,-16.0,-39.0,33.86,0.971526,33.29,1,S3
-45.0,45.0,9.0,-0.33,0.333393,30.89,4,S3
-48.0,19.0,38.0,3.95,0.18063,32.77,3,S4
-43.0,-45.0,15.0,-3.03,0.304728,33.07,2,S14
-29.0,56.0,13.0,-3.76,3.851158,32.47,2,S3
-54.0,4.0,36.0,20.83,0.321359,32.49,4,S14
48.0,32.0,33.0,33.04,0.127119,35.91,1,S2
-52.0,1.0,38.0,-9.94,1.177907,32.99,1,S3
-29.0,56.0,11.0,4.29,2.411468,32.03,2,S3
16.0,-59.0,16.0,-202.63,0.75369,34.09,2,S2
12.0,-61.0,17.0,56.64,0.729344,33.63,2,S2
-21.0,60.0,8.0,38.63,2.80918,32.45,2,S4
-30.0,-55.0,10.0,14.51,0.270188,32.15,1,S14
-49.0,0.0,41.0,-46.18,0.169117,32.79,3,S4
8.0,15.0,60.0,234.55,0.121993,35.57,1,S2
-30.0,-49.0,27.0,11.26,0.329034,33.21,2,S14
61.0,0.0,-12.0,38.24,0.20528,34.25,3,S2
-54.0,-27.0,21.0,3.24,1.861015,32.81,1,S3
43.0,-57.0,-1.0,109.31,0.579428,33.81,2,S2
60.0,1.0,-18.0,56.61,0.203999,34.27,3,S2
-48.0,0.0,43.0,67.68,0.167838,32.79,3,S4
-65.0,-2.0,-9.0,-15.97,0.161442,32.84,4,S4
62.0,0.0,11.0,11.71,0.2245,34.05,4,S2
-53.0,5.0,36.0,17.9,0.316242,32.53,4,S14
-17.0,62.0,11.0,45.32,2.384494,32.39,2,S4
-21.0,-11.0,-60.0,-63.89,0.125626,32.99,1,S4
-28.0,20.0,57.0,-9.45,0.927895,32.53,2,S3
-56.0,-37.0,-1.0,-23.73,2.068092,32.87,1,S3
-26.0,-11.0,-58.0,33.13,0.128184,32.93,1,S4
54.0,24.0,22.0,-26.08,0.154027,35.89,1,S2
15.0,8.0,59.0,58.35,1.186948,35.75,1,S2
-58.0,-28.0,-2.0,-13.15,0.330313,32.89,2,S14
21.0,-52.0,27.0,17.35,0.583306,33.18,1,S3
-53.0,5.0,36.0,-22.7,0.321359,32.47,4,S14
11.0,-59.0,17.0,-19.31,0.187026,31.45,4,S4
-31.0,-7.0,-56.0,15.6,0.120509,33.03,1,S4
18.0,-61.0,17.0,4.48,0.587116,33.93,2,S2
-29.0,57.0,10.0,-0.53,2.537434,32.05,2,S3
-63.0,1.0,17.0,15.86,0.183188,31.41,4,S4
61.0,0.0,12.0,10.68,0.14762,34.63,4,S2
-30.0,57.0,10.0,5.69,4.470348,32.29,2,S3
30.0,56.0,-15.0,31.27,0.239876,34.11,3,S2
-44.0,-35.0,-29.0,-1.57,0.337989,32.61,2,S14
-33.0,-48.0,28.0,18.74,0.331593,33.16,2,S14
-44.0,18.0,43.0,-46.36,0.174234,32.75,3,S4
-44.0,19.0,43.0,50.71,0.172955,32.77,3,S4
60.0,0.0,-19.0,5.18,0.174528,34.13,3,S2
58.0,19.0,19.0,1.41,0.257814,35.79,1,S2
20.0,17.0,52.0,-199.9,0.48596,35.83,1,S2
62.0,0.0,12.0,15.17,0.16684,34.55,4,S2
-62.0,17.0,-46.0,14.05,0.598612,32.53,2,S3
-14.0,59.0,16.0,-50.74,2.381177,32.25,2,S4
-23.0,-6.0,-61.0,18.73,0.120509,33.05,1,S4
-33.0,-6.0,-55.0,25.14,0.112834,33.11,1,S4
22.0,-58.0,16.0,-86.26,0.597367,33.91,2,S2
-45.0,45.0,9.0,-4.15,0.339799,30.91,4,S3
63.0,4.0,-29.0,14.77,0.10918,35.68,1,S2
57.0,23.0,17.0,9.87,0.221937,33.63,4,S2
58.0,25.0,5.0,13.31,0.116868,35.87,1,S2
15.0,-60.0,12.0,-0.49,1.024119,33.0,2,S2
-64.0,-9.0,6.0,13.95,0.501306,33.16,1,S3
-24.0,-22.0,55.0,4.62,2.13728,32.81,1,S3
-32.0,-7.0,-56.0,41.55,0.121788,33.05,1,S4
-20.0,-11.0,-60.0,33.6,0.125626,33.03,1,S4
60.0,0.0,-19.0,-14.47,0.165559,34.11,3,S2
-42.0,8.0,48.0,-4.37,0.565369,33.23,1,S3
-54.0,-32.0,14.0,4.63,0.36158,33.25,1,S3
-42.0,-7.0,48.0,9.78,2.070655,32.83,1,S3
59.0,1.0,-16.0,8.84,0.198873,34.18,3,S2
-44.0,18.0,43.0,70.95,0.174234,32.73,3,S4
-53.0,5.0,36.0,-6.65,0.320079,32.47,4,S14
-56.0,7.0,32.0,-28.47,0.3188,31.69,4,S14
-37.0,-7.0,-53.0,-55.73,0.312404,32.11,1,S14
-16.0,62.0,6.0,-2.23,0.320079,31.97,3,S14
57.0,23.0,17.0,-9.35,0.169403,34.34,4,S2
16.0,-59.0,16.0,-7.43,0.862603,33.55,2,S2
-65.0,1.0,-4.0,31.91,0.151209,32.77,4,S4
-19.0,61.0,10.0,-18.19,2.905118,32.43,2,S4
-36.0,61.0,12.0,-24.12,0.34108,32.71,2,S3
-19.0,-7.0,-62.0,13.05,0.120509,33.03,1,S4
-35.0,-6.0,-54.0,-8.45,0.116671,33.09,1,S4
62.0,1.0,10.0,-1.41,0.316756,34.07,4,S2
-64.0,13.0,-6.0,6.17,0.469206,30.51,4,S3
-38.0,-7.0,-53.0,4.28,0.306008,32.21,1,S14
-23.0,60.0,1.0,4.25,2.380657,32.47,2,S4
-30.0,-48.0,27.0,25.41,0.329034,33.15,2,S14
-55.0,-3.0,34.0,4.07,0.419237,33.16,1,S3
-47.0,-41.0,-16.0,-2.93,0.288098,32.09,1,S14
-56.0,8.0,31.0,13.5,0.309845,31.61,4,S14
16.0,-59.0,14.0,3.59,1.016431,33.18,2,S2
-65.0,0.0,-5.0,-8.11,0.153767,32.75,4,S4
54.0,23.0,27.0,-29.45,0.501267,35.77,1,S2
-30.0,56.0,10.0,-3.09,1.541983,31.89,2,S3
-29.0,57.0,10.0,2.69,3.049093,32.11,2,S3
-53.0,5.0,36.0,3.11,0.320079,32.43,4,S14
-61.0,2.0,21.0,-27.65,0.197259,31.39,4,S4
-62.0,-20.0,-9.0,3.91,0.689651,33.43,1,S3
-23.0,-10.0,-58.0,-16.98,0.126905,32.97,1,S4
-53.0,5.0,37.0,14.44,0.320079,32.43,4,S14
-30.0,-53.0,-30.0,-14.1,0.340547,32.77,2,S14
8.0,-57.0,27.0,52.48,1.053458,30.69,3,S3
-59.0,-8.0,26.0,-69.81,4.146761,32.71,1,S3
55.0,26.0,20.0,18.42,0.451295,35.79,1,S2
15.0,-59.0,14.0,11.3,1.142002,32.71,2,S2
-25.0,-20.0,48.0,-10.7,0.349502,32.83,2,S14
-53.0,5.0,37.0,18.19,0.321359,32.41,4,S14
-65.0,0.0,6.0,18.6,0.184468,31.47,4,S4
-44.0,18.0,43.0,-34.55,0.171676,32.77,3,S4
-19.0,60.0,11.0,-71.13,1.962887,32.25,2,S4
-56.0,7.0,32.0,-29.91,0.314962,31.73,4,S14
-37.0,-39.0,-37.0,19.9,0.276585,32.07,1,S14
-56.0,8.0,31.0,-2.02,0.313683,31.71,4,S14
-30.0,-48.0,28.0,1.81,0.332872,33.18,2,S14
-23.0,59.0,0.0,-30.2,2.887515,32.66,2,S4
-64.0,14.0,-5.0,-16.92,0.441018,30.63,4,S3
57.0,23.0,17.0,18.78,0.209124,33.65,4,S2
-60.0,-21.0,-13.0,-24.34,0.364143,32.63,2,S3
-46.0,-35.0,-39.0,-59.72,0.340547,32.66,2,S14
-54.0,-27.0,21.0,29.51,1.872546,32.81,1,S3
-20.0,60.0,11.0,-14.24,3.119045,32.43,2,S4
50.0,18.0,26.0,-15.35,0.242438,35.75,1,S2
-45.0,6.0,45.0,491.1,0.171676,32.77,3,S4
-32.0,-55.0,6.0,-17.03,0.268909,32.16,1,S14
-57.0,-29.0,9.0,0.84,0.350781,32.89,2,S14
-51.0,-35.0,-21.0,-2.61,0.295773,32.18,1,S14
-25.0,-4.0,57.0,-278.08,0.175513,32.75,3,S4
-65.0,-2.0,-2.0,-23.22,0.153767,32.93,4,S4
-64.0,14.0,-5.0,-13.38,0.444862,30.67,4,S3
-54.0,-5.0,34.0,-6.81,0.365424,30.95,3,S3
-42.0,-1.0,48.0,-1.91,0.369268,33.13,1,S3
56.0,22.0,19.0,129.11,0.329569,33.71,4,S2
-29.0,57.0,10.0,-7.91,1.562483,31.91,2,S3
62.0,0.0,11.0,15.09,0.264221,33.99,4,S2
43.0,14.0,-44.0,-40.42,0.114305,35.68,1,S2
-46.0,-39.0,-24.0,16.91,0.289377,32.18,1,S14
-45.0,-7.0,44.0,6.36,5.655945,32.55,1,S3
41.0,13.0,-46.0,-5.0,0.115587,35.95,1,S2
-65.0,-3.0,-4.0,-5.77,0.155047,32.97,4,S4
-30.0,-55.0,11.0,-1.53,0.271468,32.13,1,S14
-55.0,-4.0,34.0,6.96,0.441018,33.16,1,S3
-29.0,57.0,10.0,5.03,2.292312,31.99,2,S3
-56.0,7.0,31.0,17.18,0.313683,31.73,4,S14
-19.0,61.0,10.0,27.36,2.598116,32.65,2,S4
22.0,-60.0,16.0,-116.56,0.731907,34.09,2,S2
5.0,-54.0,31.0,2.49,0.405143,30.89,3,S3
-64.0,13.0,-6.0,1.01,0.470487,30.51,4,S3
-43.0,-1.0,47.0,6.03,0.373112,33.15,1,S3
-63.0,15.0,-5.0,7.41,0.442299,30.65,4,S3
-17.0,60.0,12.0,-103.33,2.355073,32.31,2,S4
18.0,-59.0,13.0,-14.8,1.056153,33.13,2,S2
-35.0,-52.0,10.0,17.16,0.272747,32.27,1,S14
-50.0,7.0,37.0,3.83,0.3188,32.37,4,S14
-30.0,57.0,9.0,-7.5,2.284624,32.0,2,S3
-32.0,-8.0,-55.0,27.21,0.18063,32.89,1,S4
-44.0,-32.0,-30.0,14.86,0.350781,32.81,2,S14
-35.0,-46.0,-33.0,39.75,0.26763,32.27,1,S14
55.0,24.0,23.0,-17.71,0.148901,35.89,1,S2
-62.0,-20.0,-9.0,7.8,0.688369,33.45,1,S3
57.0,23.0,17.0,24.41,0.196311,33.66,4,S2
-18.0,60.0,13.0,-0.36,0.320079,31.97,3,S14
61.0,0.0,-17.0,28.09,0.180935,34.39,3,S2
40.0,37.0,33.0,11.85,0.56284,35.79,1,S2
-30.0,57.0,9.0,-1.14,1.517639,31.87,2,S3
-36.0,-52.0,10.0,4.97,2.360218,32.66,1,S3
62.0,0.0,-15.0,37.18,0.177091,34.39,3,S2
-64.0,13.0,-6.0,-10.59,0.471768,30.49,4,S3
-53.0,5.0,36.0,7.7,0.3188,32.43,4,S14
-47.0,44.0,11.0,-6.41,0.359018,31.03,4,S3
3.0,-54.0,31.0,-5.73,0.407706,30.85,3,S3
-44.0,18.0,43.0,19.15,0.174234,32.75,3,S4
-56.0,8.0,31.0,8.68,0.314962,31.71,4,S14
-46.0,-43.0,12.0,4.03,0.300891,32.95,2,S14
-12.0,67.0,8.0,-29.35,2.480433,32.45,2,S4
49.0,12.0,-38.0,7.36,0.110461,35.68,1,S2
-21.0,60.0,0.0,25.77,2.430545,32.47,2,S4
56.0,23.0,17.0,16.29,0.169403,34.34,4,S2
-47.0,6.0,44.0,45.04,0.212609,32.66,1,S4
-63.0,14.0,-5.0,-10.7,0.451268,30.65,4,S3
-58.0,-27.0,-12.0,59.79,1.061313,33.25,1,S3
-22.0,-28.0,-51.0,-77.35,0.108996,33.05,1,S4
-35.0,-41.0,-36.0,-0.24,0.286819,32.18,1,S14
-44.0,19.0,43.0,-40.46,0.171676,32.75,3,S4
-65.0,-2.0,-2.0,23.48,0.151209,32.91,4,S4
-44.0,19.0,43.0,78.9,0.176793,32.73,3,S4
-20.0,-4.0,-61.0,22.1,0.120509,33.05,1,S4
-56.0,7.0,32.0,-37.91,0.3188,31.71,4,S14
-32.0,55.0,12.0,-1.09,3.926672,32.43,2,S3
-65.0,-23.0,1.0,-17.24,0.36997,32.84,2,S14
-45.0,-27.0,58.0,-19.44,0.344385,32.75,2,S14
63.0,1.0,-10.0,-37.88,0.183497,34.39,3,S2
-65.0,-2.0,-2.0,-19.07,0.158884,32.84,4,S4
48.0,30.0,32.0,7.95,0.121993,35.91,1,S2
-26.0,-47.0,35.0,35.22,0.326476,33.13,2,S14
-15.0,60.0,12.0,-68.11,2.149646,32.25,2,S4
-56.0,-32.0,0.0,-11.04,0.280422,32.31,1,S14
-38.0,55.0,8.0,-5.8,2.727938,32.53,2,S3
14.0,-59.0,14.0,79.83,1.061278,32.91,2,S2
-61.0,-5.0,20.0,-37.69,2.591246,32.75,1,S3
-31.0,56.0,9.0,-11.4,2.917966,32.11,2,S3
-53.0,5.0,36.0,22.18,0.322638,32.45,4,S14
-64.0,13.0,-6.0,-10.56,0.456393,30.59,4,S3
-30.0,56.0,9.0,-2.18,2.223124,32.0,2,S3
55.0,25.0,18.0,-34.61,0.534582,35.81,1,S2
-35.0,-14.0,50.0,-35.88,4.877787,32.61,1,S3
-31.0,55.0,6.0,4.39,3.455171,32.15,2,S3
-21.0,61.0,12.0,-35.34,2.574117,32.39,2,S4
28.0,57.0,3.0,25.75,0.241157,34.07,3,S2
-42.0,-44.0,-45.0,36.43,0.340547,32.73,2,S14
-64.0,14.0,-4.0,4.31,0.442299,30.57,4,S3
-18.0,61.0,11.0,124.05,2.19006,32.29,2,S4
62.0,1.0,-15.0,-16.53,0.201436,34.23,3,S2
-61.0,-19.0,-15.0,3.55,0.819057,33.37,1,S3
-19.0,-6.0,-61.0,40.72,0.120509,33.07,1,S4
-56.0,-28.0,11.0,27.5,0.208772,32.68,1,S4
-32.0,-55.0,8.0,12.71,0.26763,32.21,1,S14
-31.0,54.0,10.0,-18.95,0.767738,32.5,2,S3
-70.0,-16.0,8.0,-6.34,2.130874,32.83,1,S3
-29.0,56.0,10.0,3.29,1.556077,31.91,2,S3
-22.0,64.0,6.0,18.82,2.46892,32.49,2,S4
-11.0,61.0,13.0,18.06,2.287797,32.23,2,S4
38.0,14.0,-48.0,-75.54,0.10918,35.91,1,S2
-55.0,-31.0,15.0,10.62,0.365424,33.23,1,S3
-54.0,4.0,36.0,-28.87,0.316242,32.55,4,S14
55.0,25.0,20.0,-37.97,0.113024,35.89,1,S2
-64.0,13.0,-6.0,-4.52,0.469206,30.53,4,S3
-20.0,60.0,8.0,25.47,2.829647,32.45,2,S4
-16.0,62.0,5.0,31.78,0.317521,31.99,3,S14
-54.0,4.0,36.0,-24.1,0.317521,32.55,4,S14
-53.0,-36.0,-11.0,-128.79,2.061686,32.84,1,S3
-64.0,13.0,-5.0,-1.07,0.453831,30.59,4,S3
16.0,-59.0,13.0,121.45,1.133033,32.71,2,S2
-42.0,-2.0,48.0,6.63,0.405143,33.15,1,S3
-37.0,-8.0,-53.0,23.29,0.304728,32.21,1,S14
18.0,-60.0,15.0,-15.43,0.672966,34.05,2,S2
-32.0,-49.0,25.0,15.81,0.331593,33.18,2,S14
62.0,0.0,12.0,-14.01,0.170684,34.45,4,S2
16.0,-59.0,14.0,-36.38,1.150971,32.63,2,S2
-45.0,45.0,12.0,-5.11,0.348768,30.95,4,S3
-54.0,-21.0,-17.0,24.35,1.030563,33.25,1,S3
-17.0,59.0,15.0,-40.58,2.873444,32.41,2,S4
-46.0,-8.0,43.0,15.81,6.012984,32.61,1,S3
-31.0,57.0,9.0,-13.08,2.743716,32.11,2,S3
-55.0,-31.0,14.0,1.94,0.367987,33.23,1,S3
-60.0,-24.0,-8.0,-0.5,1.103595,33.13,1,S3
-34.0,-9.0,-54.0,8.94,0.152488,32.89,1,S4
58.0,25.0,6.0,7.3,0.116868,35.87,1,S2
-22.0,-11.0,-60.0,-9.32,0.125626,32.99,1,S4
62.0,1.0,11.0,17.32,0.228344,34.03,4,S2
-64.0,13.0,-7.0,3.94,0.470487,30.49,4,S3
-65.0,0.0,-6.0,8.28,0.155047,32.77,4,S4
21.0,-62.0,16.0,-126.49,0.807505,34.07,2,S2
-66.0,-1.0,-9.0,21.44,0.152488,32.75,4,S4
-15.0,61.0,10.0,26.1,2.303906,32.37,2,S4
-59.0,27.0,-70.0,-10.97,4.204705,32.43,2,S3
-31.0,56.0,9.0,-3.46,3.140063,32.13,2,S3
-64.0,-2.0,11.0,23.94,0.332872,33.18,2,S14
-36.0,-8.0,-53.0,46.15,0.171676,32.87,1,S4
39.0,37.0,33.0,0.64,0.624344,35.77,1,S2
54.0,26.0,21.0,13.86,0.096367,35.91,1,S2
-20.0,-6.0,-61.0,-35.39,0.120509,33.05,1,S4
57.0,22.0,17.0,-19.59,0.255252,33.63,4,S2
60.0,0.0,-20.0,-8.74,0.146339,34.07,3,S2
-63.0,2.0,16.0,-26.97,0.183188,31.45,4,S4
-29.0,57.0,10.0,-3.18,2.036061,31.99,2,S3
-32.0,-46.0,-34.0,92.82,0.340547,32.73,2,S14
-17.0,-7.0,-62.0,36.03,0.123067,33.07,1,S4
58.0,25.0,-8.0,11.79,0.097648,35.61,1,S2
-65.0,-3.0,-3.0,32.43,0.155047,32.95,4,S4
62.0,0.0,12.0,11.1,0.182216,34.29,4,S2
57.0,22.0,17.0,-17.88,0.242438,33.63,4,S2
15.0,-59.0,13.0,5.99,1.18813,32.63,2,S2
-47.0,44.0,11.0,-4.07,0.352612,30.95,4,S3
-30.0,-8.0,-57.0,-1.27,0.160163,32.89,1,S4
-60.0,-45.0,-20.0,25.29,0.345664,32.71,2,S14
15.0,-58.0,16.0,-21.04,0.965109,33.53,2,S2
-59.0,-31.0,6.0,11.41,0.367987,33.15,1,S3
-65.0,-1.0,6.0,14.44,0.183188,31.45,4,S4
-62.0,-20.0,-8.0,4.23,0.728088,33.45,1,S3
-67.0,-20.0,-19.0,14.83,0.355174,32.63,2,S3
-64.0,13.0,-6.0,-1.94,0.449987,30.61,4,S3
-32.0,-9.0,-56.0,-27.57,0.155047,32.89,1,S4
-38.0,-7.0,-53.0,37.97,0.311125,32.11,1,S14
-49.0,-44.0,-2.0,-3.6,0.321359,32.65,2,S14
-56.0,7.0,32.0,19.76,0.311125,31.73,4,S14
-64.0,11.0,-7.0,-0.4,0.469206,30.47,4,S3
-53.0,5.0,36.0,7.48,0.320079,32.43,4,S14
-54.0,5.0,36.0,-6.05,0.317521,32.49,4,S14
-52.0,-1.0,38.0,-17.1,0.451268,33.18,1,S3
-56.0,7.0,31.0,-32.32,0.314962,31.73,4,S14
62.0,0.0,12.0,-12.16,0.171965,34.47,4,S2
-35.0,53.0,15.0,-8.35,0.316242,31.77,3,S14
-66.0,43.0,-14.0,3.25,3.869016,32.5,2,S3
49.0,13.0,-37.0,21.0,0.124556,35.68,1,S2
-62.0,-1.0,10.0,-41.89,0.201097,31.45,4,S4
-53.0,4.0,36.0,-20.75,0.3188,32.49,4,S14
-18.0,61.0,11.0,-9.51,0.3188,31.87,3,S14
-46.0,44.0,11.0,1.47,0.356455,31.01,4,S3
-51.0,59.0,-1.0,-3.21,0.342362,32.73,2,S3
57.0,23.0,17.0,24.74,0.188623,33.71,4,S2
49.0,13.0,-38.0,-25.95,0.127119,35.66,1,S2
-46.0,45.0,8.0,0.4,0.33083,30.83,4,S3
-50.0,0.0,41.0,-36.02,0.16528,32.87,3,S4
-32.0,-7.0,-55.0,-30.81,0.117951,33.07,1,S4
-45.0,-35.0,-30.0,-122.56,0.30217,32.16,1,S14
-17.0,62.0,2.0,9.83,0.3188,31.83,3,S14
41.0,13.0,-47.0,-16.2,0.114305,35.95,1,S2
-1.0,-54.0,32.0,-18.21,0.379518,30.73,3,S3
-42.0,-52.0,0.0,-74.87,2.276937,32.77,1,S3
57.0,23.0,17.0,13.51,0.184779,33.79,4,S2
-55.0,-34.0,-5.0,1.48,3.728078,32.65,1,S3
-61.0,-19.0,-15.0,3.02,0.838276,33.31,1,S3
-54.0,-4.0,34.0,8.04,0.439737,33.16,1,S3
-42.0,-46.0,-12.0,-43.41,0.304728,32.11,1,S14
-3.0,13.0,63.0,-18.89,0.550027,35.81,1,S2
-22.0,-10.0,-60.0,46.89,0.11923,33.05,1,S4
-36.0,-10.0,48.0,37.13,0.121788,33.07,1,S4
15.0,-60.0,12.0,0.84,1.048465,33.03,2,S2
-44.0,19.0,43.0,69.95,0.171676,32.75,3,S4
-18.0,-8.0,-61.0,-37.35,0.11923,33.05,1,S4
56.0,18.0,23.0,8.79,0.187341,35.83,1,S2
48.0,23.0,-32.0,-84.23,0.101492,35.68,1,S2
-18.0,62.0,7.0,-146.2,2.118426,32.31,2,S4
15.0,-59.0,16.0,38.97,1.180442,32.89,2,S2
59.0,0.0,-8.0,-2.24,0.188623,34.29,3,S2
57.0,22.0,17.0,10.14,0.337257,33.71,4,S2
-47.0,45.0,5.0,-0.84,0.329549,30.83,4,S3
-20.0,-6.0,-61.0,-52.53,0.120509,33.07,1,S4
-38.0,83.0,83.0,29.67,2.526483,32.61,2,S4
-22.0,-11.0,-60.0,32.63,0.126905,32.97,1,S4
60.0,15.0,10.0,-26.51,0.143776,35.89,1,S2
-32.0,-8.0,-55.0,-14.6,0.138417,32.91,1,S4
-65.0,-2.0,-3.0,27.91,0.14993,32.95,4,S4
57.0,22.0,17.0,8.73,0.33982,33.68,4,S2
-31.0,-48.0,27.0,-28.31,0.325196,33.18,2,S14
-53.0,5.0,36.0,9.63,0.3188,32.47,4,S14
15.0,-59.0,14.0,-8.16,0.584554,33.84,2,S2
-43.0,-4.0,47.0,-1.29,0.382081,30.85,3,S3
-18.0,-4.0,-61.0,30.87,0.120509,33.07,1,S4
66.0,-1.0,-2.0,-107.83,0.130963,35.53,1,S2
-24.0,-11.0,-59.0,-17.68,0.128184,32.95,1,S4
-43.0,-44.0,17.0,9.99,0.309845,32.99,2,S14
-46.0,44.0,12.0,-0.09,0.350049,30.95,4,S3
-19.0,61.0,11.0,50.18,2.186222,32.33,2,S4
-30.0,57.0,9.0,-1.84,2.785997,32.09,2,S3
-21.0,-4.0,-61.0,-30.55,0.123067,33.05,1,S4
16.0,-59.0,13.0,-5.14,1.121501,32.63,2,S2
52.0,28.0,-16.0,-43.03,0.115587,35.71,1,S2
-20.0,-6.0,-61.0,-11.89,0.121788,33.09,1,S4
-37.0,-7.0,-53.0,-21.61,0.312404,32.09,1,S14
-56.0,-31.0,9.0,12.71,1.73289,32.83,1,S3
-31.0,56.0,11.0,5.03,3.429626,32.13,2,S3
16.0,-59.0,16.0,-21.43,0.953646,33.27,2,S2
61.0,5.0,12.0,-20.38,1.09341,35.81,1,S2
-52.0,-15.0,-32.0,10.28,4.758631,32.31,2,S3
-20.0,-6.0,-61.0,-72.1,0.11923,33.07,1,S4
-29.0,63.0,12.0,13.91,2.544696,32.55,2,S4
58.0,-14.0,28.0,-38.86,1.558534,35.81,1,S2
8.0,-54.0,30.0,-3.48,0.405143,30.87,3,S3
-31.0,61.0,12.0,39.12,2.612492,32.55,2,S4
-37.0,-6.0,-52.0,27.19,0.314962,32.09,1,S14
-52.0,0.0,37.0,-10.97,0.5038,33.18,1,S3
-65.0,0.0,-5.0,-22.45,0.158884,32.79,4,S4
-31.0,-10.0,54.0,-8.04,5.364333,32.57,1,S3
-38.0,-7.0,-52.0,27.16,0.314962,32.09,1,S14
-60.0,-19.0,-15.0,-0.01,0.845964,33.29,1,S3
-16.0,62.0,6.0,12.01,0.3188,31.97,3,S14
14.0,-59.0,14.0,10.76,0.911362,33.45,2,S2
-45.0,1.0,46.0,20.84,0.482087,33.16,1,S3
-25.0,-59.0,-8.0,-27.53,0.270188,32.29,1,S14
52.0,25.0,25.0,19.1,0.707631,35.71,1,S2
-32.0,10.0,53.0,-65.98,0.849738,32.5,2,S3
-21.0,62.0,10.0,123.39,2.156801,32.27,2,S4
-34.0,52.0,15.0,46.53,0.314962,31.79,3,S14
-17.0,-8.0,-62.0,21.28,0.120509,33.05,1,S4
15.0,-60.0,13.0,25.5,1.07281,32.79,2,S2
-53.0,-36.0,-8.0,-32.07,3.854922,32.65,1,S3
-21.0,60.0,7.0,67.3,2.57637,32.37,2,S4
-33.0,-8.0,-55.0,29.5,0.137138,32.91,1,S4
-31.0,-47.0,28.0,16.27,0.332872,33.18,2,S14
-31.0,-7.0,-56.0,-22.55,0.121788,33.03,1,S4
-44.0,18.0,43.0,-29.34,0.172955,32.77,3,S4
-42.0,-2.0,48.0,-5.74,0.394893,33.11,1,S3
16.0,-60.0,15.0,-9.56,0.994649,33.39,2,S2
-44.0,18.0,44.0,18.1,0.174234,32.79,3,S4
-65.0,-1.0,-5.0,31.39,0.160163,32.83,4,S4
-28.0,16.0,56.0,2.08,1.076589,32.55,2,S3
-30.0,56.0,10.0,-0.21,2.580996,32.07,2,S3
16.0,-60.0,16.0,-3.74,1.010025,33.45,2,S2
62.0,0.0,12.0,-13.62,0.154027,34.63,4,S2
15.0,12.0,61.0,107.47,0.291129,35.79,1,S2
7.0,-53.0,31.0,-14.81,0.367987,30.85,3,S3
-29.0,57.0,10.0,-2.48,1.982248,31.95,2,S3
-25.0,-12.0,-59.0,29.01,0.126905,32.97,1,S4
-29.0,-8.0,-57.0,37.79,0.160163,32.89,1,S4
-35.0,-8.0,-54.0,-2.72,0.107717,33.11,1,S4
-40.0,-47.0,1.0,-15.04,0.345664,32.79,2,S14
-32.0,-55.0,4.0,28.14,0.274026,32.23,1,S14
-20.0,-4.0,-61.0,37.77,0.121788,33.07,1,S4
-20.0,-6.0,-61.0,23.37,0.120509,33.09,1,S4
-65.0,0.0,8.0,-15.19,0.19598,31.47,4,S4
-55.0,-27.0,21.0,15.66,1.864859,32.81,1,S3
-37.0,-7.0,-53.0,29.03,0.311125,32.11,1,S14
-43.0,-42.0,20.0,-43.17,0.343106,32.73,2,S14
-47.0,43.0,11.0,-1.11,0.367987,31.09,4,S3
-53.0,4.0,36.0,-7.96,0.313683,32.5,4,S14
-32.0,-48.0,28.0,-20.07,0.331593,33.16,2,S14
-54.0,4.0,35.0,-26.81,0.313683,32.53,4,S14
-43.0,-48.0,-8.0,-71.38,0.308566,32.23,1,S14
-19.0,-6.0,-61.0,29.08,0.121788,33.07,1,S4
-20.0,-11.0,-60.0,-40.33,0.124346,32.99,1,S4
62.0,1.0,11.0,11.19,0.251408,33.99,4,S2
-22.0,-10.0,-60.0,44.13,0.125626,32.97,1,S4
-63.0,-4.0,15.0,32.23,0.400018,31.07,4,S3
-62.0,1.0,20.0,2.68,0.189584,31.41,4,S4
-56.0,7.0,32.0,11.21,0.316242,31.73,4,S14
-64.0,14.0,-6.0,7.06,0.455112,30.61,4,S3
-66.0,-3.0,-3.0,72.55,0.161442,32.81,4,S4
17.0,-58.0,15.0,-13.41,1.086905,32.87,2,S2
-56.0,8.0,31.0,-25.13,0.309845,31.59,4,S14
-18.0,62.0,9.0,93.31,1.608357,32.75,2,S4
-29.0,56.0,9.0,-25.02,2.051436,31.97,2,S3
-65.0,-1.0,5.0,-1.57,0.183188,31.49,4,S4
-42.0,-1.0,49.0,-0.0,0.406424,33.13,1,S3
54.0,21.0,24.0,-10.06,0.280878,35.79,1,S2
-65.0,-2.0,-3.0,-2.87,0.157605,32.87,4,S4
63.0,1.0,11.0,-9.42,0.277034,33.99,4,S2
-56.0,8.0,31.0,-7.23,0.314962,31.67,4,S14
-44.0,19.0,43.0,49.22,0.175513,32.75,3,S4
-44.0,18.0,43.0,-83.82,0.172955,32.77,3,S4
-53.0,4.0,36.0,12.47,0.316242,32.55,4,S14
-52.0,-5.0,37.0,48.54,0.366706,30.69,3,S3
-64.0,13.0,-6.0,-14.91,0.453831,30.61,4,S3
-64.0,12.0,-6.0,9.94,0.471768,30.47,4,S3
-44.0,18.0,43.0,-22.1,0.175513,32.73,3,S4
13.0,-59.0,16.0,-98.72,0.611462,33.93,2,S2
-64.0,14.0,-5.0,5.43,0.439737,30.69,4,S3
49.0,13.0,-37.0,17.41,0.101492,35.71,1,S2
16.0,-59.0,15.0,-35.57,0.729344,33.68,2,S2
-21.0,-11.0,-61.0,3.2,0.125626,32.99,1,S4
-64.0,14.0,-4.0,2.84,0.442299,30.63,4,S3
-44.0,18.0,43.0,38.39,0.174234,32.73,3,S4
-54.0,3.0,36.0,0.41,0.313683,32.53,4,S14
-43.0,-2.0,48.0,7.45,0.383362,33.13,1,S3
-17.0,62.0,11.0,111.31,2.107434,32.23,2,S4
-55.0,-34.0,-4.0,7.26,3.585859,32.71,1,S3
-32.0,-55.0,9.0,23.6,0.265071,32.05,1,S14
-65.0,-2.0,-2.0,-34.14,0.155047,32.84,4,S4
-49.0,1.0,42.0,34.98,0.169117,32.83,3,S4
-63.0,-24.0,-20.0,15.56,0.35334,32.81,2,S14
-46.0,45.0,9.0,2.25,0.337237,30.91,4,S3
-50.0,-41.0,4.0,-13.99,0.285539,32.07,1,S14
-61.0,-5.0,22.0,-1.36,2.550246,32.73,1,S3
32.0,-53.0,10.0,-16.57,0.681935,33.68,2,S2
-53.0,-22.0,-27.0,47.87,0.354619,32.81,2,S14
-30.0,56.0,10.0,-9.66,2.596371,32.07,2,S3
-63.0,15.0,-7.0,-8.29,0.470487,30.49,4,S3
-41.0,-36.0,-30.0,-17.06,0.33671,32.66,2,S14
62.0,0.0,11.0,-6.05,0.259096,34.0,4,S2
-20.0,-12.0,-60.0,35.46,0.125626,32.97,1,S4
28.0,-50.0,23.0,-17.93,0.5564,33.16,1,S3
-34.0,-6.0,-55.0,3.41,0.116671,33.11,1,S4
-29.0,-7.0,-57.0,-42.52,0.160163,32.89,1,S4
-60.0,-24.0,-8.0,-12.11,1.110001,33.11,1,S3
-27.0,64.0,12.0,-23.03,1.849484,31.97,2,S3
-56.0,8.0,31.0,13.08,0.308566,31.69,4,S14
56.0,25.0,18.0,18.93,0.533301,35.77,1,S2
-65.0,-2.0,-3.0,-71.64,0.155047,32.95,4,S4
-46.0,45.0,10.0,-3.46,0.339799,30.91,4,S3
-45.0,-44.0,16.0,15.55,0.312404,33.0,2,S14
-22.0,-12.0,-59.0,34.9,0.126905,33.0,1,S4
58.0,25.0,6.0,-16.72,0.115587,35.87,1,S2
-56.0,7.0,31.0,-3.7,0.316242,31.71,4,S14
-26.0,58.0,10.0,1.76,1.918671,31.97,2,S3
5.0,10.0,63.0,99.84,0.383385,35.89,1,S2
-53.0,-46.0,-3.0,-12.38,0.35334,32.81,2,S14
25.0,57.0,14.0,-3.18,0.360321,34.07,3,S2
-21.0,61.0,15.0,79.34,2.442057,32.45,2,S4
-65.0,-2.0,-3.0,-7.18,0.155047,32.89,4,S4
-55.0,-2.0,34.0,4.93,0.446143,33.16,1,S3
-45.0,-7.0,45.0,10.06,5.462476,32.57,1,S3
-65.0,0.0,-6.0,13.11,0.151209,32.73,4,S4
-32.0,-55.0,4.0,-52.48,0.275305,32.23,1,S14
-31.0,56.0,9.0,-8.12,2.703997,32.09,2,S3
-21.0,-6.0,-60.0,-4.15,0.120509,33.05,1,S4
-64.0,12.0,-8.0,2.46,0.469206,30.51,4,S3
-29.0,-8.0,-57.0,12.98,0.161442,32.89,1,S4
62.0,0.0,12.0,11.43,0.151464,34.63,4,S2
-33.0,-55.0,4.0,25.26,0.265071,32.25,1,S14
63.0,0.0,-5.0,1.94,0.214249,34.18,3,S2
57.0,26.0,-8.0,15.88,0.096367,35.63,1,S2
18.0,-64.0,16.0,230.06,0.726782,34.11,2,S2
40.0,14.0,-47.0,-19.04,0.111743,35.95,1,S2
-26.0,67.0,13.0,11.49,2.508574,32.61,2,S4
-56.0,7.0,32.0,11.6,0.3188,31.69,4,S14
-38.0,-8.0,-53.0,-46.91,0.307287,32.18,1,S14
-19.0,62.0,10.0,115.4,2.708125,32.45,2,S4
62.0,0.0,12.0,16.17,0.155308,34.63,4,S2
53.0,26.0,25.0,-27.28,0.708912,35.73,1,S2
8.0,-54.0,30.0,-32.05,0.403862,30.89,3,S3
-40.0,-36.0,-38.0,15.62,0.276585,32.25,1,S14
-29.0,57.0,11.0,7.46,4.60488,32.27,2,S3
-44.0,-44.0,15.0,-9.67,0.303449,33.09,2,S14
4.0,-53.0,32.0,-3.89,0.410268,30.89,3,S3
-54.0,4.0,35.0,-30.02,0.312404,32.5,4,S14
-21.0,-11.0,-60.0,23.57,0.125626,33.0,1,S4
-65.0,0.0,-5.0,-62.39,0.152488,32.73,4,S4
51.0,22.0,30.0,0.25,0.497492,35.84,1,S2
56.0,25.0,17.0,14.48,0.105336,35.89,1,S2
-3.0,8.0,65.0,-24.45,0.092523,35.63,1,S2
16.0,-60.0,11.0,-4.81,0.625556,33.87,2,S2
-23.0,61.0,9.0,-7.08,2.439499,32.37,2,S4
22.0,-52.0,27.0,11.63,0.580744,33.18,1,S3
-32.0,-49.0,26.0,21.39,0.330313,33.21,2,S14
-56.0,9.0,32.0,1.63,0.311125,31.71,4,S14
-30.0,56.0,10.0,-11.67,2.64634,32.07,2,S3
-61.0,-3.0,22.0,11.82,1.331658,32.83,1,S3
-34.0,57.0,-7.0,6.54,1.970562,32.71,2,S4
-30.0,57.0,14.0,-2.5,0.423081,32.61,2,S3
-29.0,53.0,10.0,2.11,0.34108,32.68,2,S3
-32.0,-55.0,7.0,21.11,0.270188,32.21,1,S14
-61.0,-3.0,22.0,14.3,1.343189,32.81,1,S3
62.0,0.0,12.0,19.39,0.155308,34.63,4,S2
57.0,23.0,17.0,24.27,0.182216,33.87,4,S2
55.0,22.0,22.0,-56.28,0.277034,35.79,1,S2
-53.0,4.0,36.0,-25.91,0.3188,32.5,4,S14
-18.0,60.0,12.0,3.67,0.320079,31.91,3,S14
-19.0,-4.0,-61.0,-23.56,0.123067,33.07,1,S4
-56.0,8.0,31.0,12.27,0.313683,31.65,4,S14
-24.0,60.0,1.0,-38.77,2.56102,32.49,2,S4
-45.0,-7.0,45.0,15.27,5.411739,32.53,1,S3
-50.0,-4.0,40.0,-14.74,0.392331,30.75,3,S3
-61.0,-4.0,21.0,-2.38,1.358564,32.83,1,S3
-24.0,55.0,16.0,-5.64,1.836472,32.55,2,S3
-31.0,-9.0,-56.0,6.23,0.170397,32.89,1,S4
-48.0,43.0,11.0,-32.29,0.367987,31.09,4,S3
-49.0,-1.0,42.0,-46.66,0.170397,32.79,3,S4
-42.0,-2.0,48.0,7.5,0.389768,33.13,1,S3
-64.0,13.0,-5.0,-16.68,0.446143,30.67,4,S3
-65.0,0.0,-4.0,-51.88,0.153767,32.77,4,S4
-65.0,-1.0,6.0,8.8,0.188305,31.47,4,S4
-56.0,8.0,31.0,-0.23,0.308566,31.59,4,S14
-53.0,-7.0,36.0,-6.01,6.048859,32.63,1,S3
24.0,57.0,14.0,112.92,0.3206,34.07,3,S2
-24.0,-58.0,-8.0,-25.11,0.271468,32.29,1,S14
33.0,-51.0,15.0,35.11,0.549994,33.16,1,S3
-32.0,44.0,-18.0,50.32,1.644174,32.73,2,S4
-65.0,0.0,-4.0,29.77,0.157605,32.77,4,S4
48.0,20.0,-34.0,16.49,0.098929,35.68,1,S2
10.0,-56.0,24.0,-41.31,0.596119,33.21,1,S3
-65.0,-3.0,-3.0,32.25,0.155047,32.97,4,S4
17.0,-59.0,12.0,10.89,0.743439,33.57,2,S2
-49.0,1.0,41.0,0.53,0.171676,32.83,3,S4
-46.0,-44.0,10.0,-19.2,0.298332,32.97,2,S14
-18.0,61.0,11.0,5.3,0.320079,31.89,3,S14
57.0,23.0,17.0,22.58,0.188623,33.68,4,S2
14.0,-58.0,19.0,-38.21,0.571775,33.23,1,S3
-46.0,45.0,10.0,-3.33,0.338518,30.95,4,S3
-57.0,-4.0,30.0,-2.11,2.387125,32.68,1,S3
-61.0,-20.0,-9.0,-4.69,0.715276,33.43,1,S3
-47.0,-8.0,43.0,-29.33,5.980952,32.61,1,S3
62.0,1.0,10.0,9.17,0.291129,34.03,4,S2
-49.0,1.0,42.0,31.58,0.170397,32.84,3,S4
18.0,6.0,63.0,80.44,0.24372,35.75,1,S2
16.0,-59.0,13.0,-34.43,0.587116,33.84,2,S2
-32.0,-48.0,27.0,13.16,0.330313,33.18,2,S14
-65.0,-3.0,-3.0,-3.5,0.155047,32.93,4,S4
-53.0,4.0,36.0,-12.74,0.317521,32.5,4,S14
58.0,26.0,-8.0,8.66,0.097648,35.65,1,S2
-65.0,-2.0,-2.0,-54.83,0.157605,32.87,4,S4
-49.0,0.0,41.0,70.56,0.170397,32.79,3,S4
-51.0,-36.0,-19.0,29.64,0.285539,32.21,1,S14
-46.0,45.0,9.0,2.61,0.335955,30.89,4,S3
49.0,65.0,11.0,17.12,0.145057,34.09,3,S2
-18.0,59.0,10.0,-59.69,2.077492,32.31,2,S4
-38.0,-28.0,-21.0,-34.14,4.321012,32.41,2,S3
-64.0,13.0,-5.0,-0.7,0.449987,30.65,4,S3
62.0,0.0,12.0,4.11,0.152745,34.61,4,S2
57.0,23.0,17.0,23.89,0.182216,33.81,4,S2
20.0,-60.0,14.0,7.61,0.688342,34.05,2,S2
-65.0,-1.0,4.0,21.03,0.183188,31.47,4,S4
-34.0,-6.0,-55.0,-50.76,0.116671,33.09,1,S4
-24.0,-59.0,-8.0,-65.55,0.271468,32.29,1,S14
64.0,0.0,-6.0,-32.46,0.192467,34.18,3,S2
-54.0,-31.0,25.0,61.9,4.66638,32.61,1,S3
-42.0,-1.0,48.0,3.92,0.369268,33.15,1,S3
62.0,0.0,12.0,20.2,0.164277,34.59,4,S2
-15.0,61.0,12.0,-49.95,2.378098,32.34,2,S4
-65.0,-2.0,-6.0,-75.75,0.161442,32.81,4,S4
56.0,23.0,17.0,-12.9,0.173247,34.33,4,S2
-38.0,-8.0,-54.0,15.34,0.309845,32.13,1,S14
48.0,28.0,29.0,20.41,0.124556,35.91,1,S2
25.0,54.0,-15.0,185.36,0.232188,34.05,3,S2
-29.0,-9.0,-57.0,6.57,0.123067,33.09,1,S4
-47.0,-44.0,10.0,-12.92,0.300891,32.95,2,S14
-19.0,60.0,12.0,8.58,0.321359,31.97,3,S14
-37.0,-7.0,-53.0,-36.86,0.313683,32.11,1,S14
17.0,-59.0,15.0,-1.75,0.904887,33.55,2,S2
-48.0,-9.0,-40.0,5.53,4.147048,32.39,2,S3
57.0,23.0,17.0,23.92,0.246282,33.63,4,S2
-19.0,-8.0,-61.0,33.34,0.123067,33.05,1,S4
-34.0,-54.0,-7.0,24.77,0.277864,32.09,1,S14
22.0,-52.0,26.0,4.85,0.588432,33.18,1,S3
-12.0,62.0,5.0,-119.29,2.147847,32.33,2,S4
-56.0,10.0,32.0,3.29,0.306008,31.59,4,S14
24.0,57.0,13.0,1.26,0.23475,34.0,3,S2
-54.0,-28.0,-25.0,1.83,0.341827,32.73,2,S14
-48.0,-25.0,-19.0,1.01,0.337989,32.75,2,S14
-64.0,1.0,16.0,-29.91,0.18063,31.45,4,S4
62.0,0.0,11.0,0.95,0.269346,34.0,4,S2
-34.0,-47.0,30.0,16.59,0.331593,33.21,2,S14
60.0,0.0,-17.0,-68.35,0.206561,34.27,3,S2
-33.0,-9.0,-54.0,15.3,0.152488,32.89,1,S4
-72.0,-30.0,-4.0,-21.92,0.340547,32.66,2,S14
-59.0,-30.0,6.0,-32.01,1.762358,32.81,1,S3
-65.0,0.0,6.0,8.68,0.184468,31.47,4,S4
-51.0,-30.0,-26.0,30.44,0.280422,32.25,1,S14
57.0,25.0,6.0,28.84,0.116868,35.87,1,S2
-56.0,8.0,32.0,-9.57,0.314962,31.71,4,S14
66.0,0.0,6.0,93.0,0.211686,34.27,3,S2
51.0,30.0,24.0,5.21,0.374416,35.84,1,S2
-19.0,-7.0,-61.0,32.57,0.11923,33.05,1,S4
-20.0,61.0,10.0,-41.67,2.635212,32.63,2,S4
-63.0,1.0,16.0,17.43,0.18063,31.45,4,S4
-36.0,-45.0,30.0,1.7,0.316242,33.13,2,S14
62.0,0.0,11.0,-16.86,0.264221,33.97,4,S2
24.0,57.0,13.0,-32.76,0.242438,34.0,3,S2
-64.0,14.0,-5.0,-15.22,0.441018,30.65,4,S3
-52.0,-34.0,-8.0,-28.05,2.062967,32.87,1,S3
-66.0,-1.0,-12.0,-26.5,0.14993,32.77,4,S4
-24.0,-58.0,8.0,7.66,0.286819,32.0,1,S14
-64.0,13.0,-6.0,4.8,0.467925,30.51,4,S3
-17.0,-11.0,-63.0,31.88,0.124346,32.99,1,S4
-51.0,-38.0,-20.0,24.94,0.325196,32.09,1,S14
15.0,-59.0,13.0,22.52,1.059997,32.79,2,S2
34.0,-49.0,-15.0,102.7,0.720375,33.63,2,S2
-19.0,-13.0,-43.0,-25.79,0.274026,32.29,1,S14
-37.0,-7.0,-52.0,19.58,0.313683,32.11,1,S14
-61.0,-8.0,-21.0,-7.79,0.193422,32.84,1,S4
-29.0,57.0,9.0,-2.28,1.717515,31.93,2,S3
60.0,0.0,-19.0,-16.66,0.174528,34.13,3,S2
-43.0,-44.0,11.0,12.45,0.300891,33.09,2,S14
-42.0,-35.0,-35.0,42.51,0.277864,32.11,1,S14
57.0,22.0,17.0,11.96,0.255252,33.63,4,S2
-22.0,61.0,9.0,3.11,2.472757,32.53,2,S4
31.0,-51.0,18.0,-78.82,0.549994,33.15,1,S3
61.0,0.0,-13.0,3.01,0.174528,34.15,3,S2
62.0,0.0,12.0,-11.58,0.161715,34.61,4,S2
-42.0,-2.0,48.0,22.39,0.402581,33.13,1,S3
21.0,11.0,59.0,-9.45,1.051126,35.71,1,S2
-43.0,-1.0,47.0,6.44,0.364143,30.97,3,S3
-32.0,54.0,12.0,-0.97,3.049093,32.15,2,S3
-3.0,-47.0,32.0,-12.51,0.373112,30.73,3,S3
-17.0,-8.0,-63.0,6.72,0.121788,33.05,1,S4
-57.0,-28.0,9.0,17.58,0.36997,32.87,2,S14
19.0,-61.0,19.0,-11.47,0.794692,33.59,2,S2
-47.0,45.0,5.0,0.98,0.329549,30.83,4,S3
-64.0,13.0,-6.0,-4.13,0.469206,30.49,4,S3
-63.0,-5.0,14.0,15.78,0.401299,31.13,4,S3
-65.0,-3.0,-5.0,-6.87,0.155047,32.95,4,S4
-64.0,14.0,-5.0,9.18,0.443581,30.65,4,S3
53.0,23.0,25.0,-25.59,0.421825,35.79,1,S2
49.0,20.0,-35.0,9.62,0.097648,35.68,1,S2
10.0,-56.0,25.0,2.81,0.594838,33.23,1,S3
-47.0,44.0,11.0,-2.39,0.352612,30.95,4,S3
-45.0,0.0,45.0,1.8,0.373112,30.97,3,S3
59.0,-1.0,-21.0,-14.74,0.195029,34.23,3,S2
-34.0,-8.0,-54.0,119.13,0.181909,32.89,1,S4
-16.0,61.0,13.0,64.17,2.284719,32.65,2,S4
-20.0,-12.0,-59.0,10.49,0.128184,32.97,1,S4
-61.0,-20.0,-9.0,-5.5,0.698619,33.45,1,S3
-30.0,57.0,9.0,-0.08,2.170593,31.99,2,S3
-33.0,-55.0,9.0,-4.69,0.265071,32.05,1,S14
-32.0,-46.0,-27.0,23.18,0.272747,32.27,1,S14
-17.0,-3.0,-60.0,19.9,0.123067,33.07,1,S4
-65.0,0.0,-5.0,-1.46,0.158884,32.81,4,S4
-37.0,-38.0,-37.0,41.08,0.289377,32.16,1,S14
56.0,22.0,17.0,6.82,0.237313,33.65,4,S2
62.0,1.0,11.0,10.33,0.229625,34.03,4,S2
-13.0,-57.0,17.0,121.61,0.290656,31.99,1,S14
-56.0,8.0,31.0,10.71,0.309845,31.57,4,S14
-65.0,-3.0,-3.0,6.89,0.152488,32.93,4,S4
-56.0,-30.0,13.0,6.37,0.369268,33.25,1,S3
-56.0,8.0,31.0,5.74,0.311125,31.61,4,S14
-64.0,12.0,-6.0,4.11,0.470487,30.49,4,S3
-36.0,-38.0,-38.0,5.91,0.289377,32.16,1,S14
-46.0,45.0,9.0,3.4,0.335955,30.91,4,S3
-47.0,-8.0,43.0,3.11,5.918602,32.57,1,S3
-56.0,8.0,31.0,-2.14,0.307287,31.59,4,S14
-64.0,-5.0,9.0,-1.54,0.411549,31.05,4,S3
-20.0,-4.0,-61.0,25.34,0.121788,33.07,1,S4
-54.0,4.0,35.0,13.23,0.309845,32.53,4,S14
-33.0,55.0,9.0,-4.12,3.108031,32.13,2,S3
49.0,12.0,-38.0,22.45,0.102773,35.73,1,S2
-46.0,45.0,9.0,1.2,0.335955,30.91,4,S3
47.0,21.0,-37.0,-23.29,0.101492,35.65,1,S2
50.0,30.0,24.0,9.99,0.379541,35.87,1,S2
11.0,-55.0,12.0,-53.51,0.611462,34.0,2,S2
-49.0,1.0,42.0,58.85,0.167838,32.84,3,S4
-26.0,61.0,4.0,-1.08,2.593,32.63,2,S4
-64.0,13.0,-5.0,0.08,0.458956,30.57,4,S3
53.0,25.0,25.0,-20.41,0.102773,35.91,1,S2
-23.0,-59.0,-8.0,7.25,0.268909,32.25,1,S14
-60.0,4.0,-18.0,106.08,0.339268,32.65,2,S14
-56.0,8.0,32.0,13.03,0.314962,31.69,4,S14
-48.0,-27.0,-37.0,-12.25,0.341827,32.75,2,S14
-47.0,43.0,11.0,0.79,0.36158,31.05,4,S3
-56.0,8.0,31.0,-20.52,0.312404,31.69,4,S14
28.0,54.0,-17.0,-40.87,0.246282,34.11,3,S2
62.0,0.0,12.0,-27.75,0.182216,34.31,4,S2
-52.0,-11.0,-38.0,-9.23,3.425702,32.5,2,S3
-56.0,8.0,32.0,8.49,0.316242,31.73,4,S14
-64.0,13.0,-5.0,5.4,0.456393,30.57,4,S3
-34.0,-52.0,15.0,5.8,0.423081,30.83,3,S3
-56.0,-31.0,8.0,9.25,1.608608,32.84,1,S3
44.0,-24.0,41.0,0.46,1.441933,35.83,1,S2
24.0,57.0,13.0,30.67,0.236032,34.03,3,S2
-57.0,7.0,-34.0,-17.33,0.533269,32.57,2,S3
-13.0,63.0,6.0,11.79,0.320079,31.95,3,S14
5.0,-54.0,31.0,27.55,0.407706,30.87,3,S3
-38.0,42.0,2.0,-13.6,0.441018,32.63,2,S3
57.0,22.0,17.0,2.23,0.265502,33.65,4,S2
-19.0,60.0,11.0,23.21,0.3188,31.99,3,S14
-34.0,-52.0,-16.0,20.74,0.202376,32.81,1,S4
-65.0,0.0,8.0,-29.3,0.194701,31.47,4,S4
-42.0,-35.0,-36.0,9.11,0.280422,32.09,1,S14
-46.0,45.0,11.0,0.71,0.342362,30.95,4,S3
-63.0,1.0,17.0,24.44,0.184468,31.43,4,S4
-66.0,-4.0,8.0,-17.11,0.402581,31.11,4,S3
-46.0,46.0,9.0,3.68,0.33083,30.85,4,S3
-49.0,6.0,41.0,-16.96,0.647369,33.41,1,S3
-62.0,-20.0,-9.0,0.47,0.697338,33.43,1,S3
-37.0,-8.0,-53.0,-12.9,0.308566,32.15,1,S14
59.0,0.0,-16.0,-14.5,0.203999,34.15,3,S2
-24.0,-59.0,-8.0,10.25,0.26763,32.23,1,S14
-53.0,4.0,36.0,12.96,0.314962,32.5,4,S14
-9.0,1.0,63.0,-24.38,1.258702,35.79,1,S2
-64.0,14.0,-6.0,2.11,0.461518,30.55,4,S3
-56.0,-7.0,-33.0,7.93,0.105159,33.07,1,S4
53.0,25.0,22.0,-11.15,0.098929,35.91,1,S2
-64.0,12.0,-6.0,2.98,0.471768,30.49,4,S3
53.0,25.0,25.0,11.67,0.724288,35.71,1,S2
56.0,18.0,23.0,7.85,0.180935,35.87,1,S2
-46.0,45.0,9.0,3.62,0.332112,30.83,4,S3
-55.0,-31.0,14.0,-1.79,0.364143,33.23,1,S3
-35.0,-48.0,24.0,-39.5,0.329034,33.18,2,S14
-65.0,0.0,-5.0,35.38,0.161442,32.79,4,S4
-42.0,-21.0,-19.0,2.38,0.353893,32.68,2,S3
-31.0,54.0,10.0,-0.73,0.742113,32.53,2,S3
-20.0,-6.0,-61.0,-44.5,0.121788,33.09,1,S4
-50.0,7.0,40.0,-84.2,0.171676,32.79,3,S4
62.0,1.0,12.0,-5.54,0.202717,34.16,4,S2
-50.0,7.0,40.0,8.51,0.599963,33.29,1,S3
-21.0,58.0,2.0,80.75,2.494503,32.49,2,S4
-65.0,0.0,8.0,-19.23,0.194701,31.43,4,S4
60.0,0.0,-19.0,-26.27,0.157871,34.11,3,S2
-22.0,60.0,11.0,-7.94,0.320079,31.99,3,S14
-53.0,4.0,36.0,12.8,0.320079,32.47,4,S14
-65.0,0.0,8.0,-5.41,0.193422,31.47,4,S4
-20.0,61.0,8.0,8.88,2.521366,32.37,2,S4
-32.0,-55.0,7.0,-25.97,0.270188,32.18,1,S14
-49.0,1.0,42.0,19.41,0.171676,32.81,3,S4
45.0,34.0,27.0,45.8,0.492367,35.83,1,S2
-31.0,-48.0,27.0,10.72,0.331593,33.18,2,S14
58.0,0.0,-19.0,-63.31,0.211686,34.25,3,S2
-56.0,8.0,31.0,-14.02,0.311125,31.61,4,S14
14.0,-60.0,15.0,0.11,0.954928,33.5,2,S2
62.0,0.0,12.0,18.03,0.146339,34.66,4,S2
62.0,0.0,12.0,-18.15,0.143776,34.73,4,S2
-22.0,-59.0,-8.0,-26.19,0.265071,32.23,1,S14
-31.0,-6.0,-56.0,34.15,0.120509,33.09,1,S4
-65.0,-2.0,-3.0,18.48,0.147372,32.93,4,S4
-16.0,62.0,7.0,12.37,0.320079,31.95,3,S14
54.0,25.0,20.0,21.49,0.110461,35.87,1,S2
17.0,-61.0,15.0,-195.47,0.592242,33.93,2,S2
-36.0,-10.0,-54.0,-24.04,0.178072,32.89,1,S4
47.0,21.0,-37.0,13.48,0.100211,35.66,1,S2
-2.0,-42.0,46.0,-69.92,2.215436,32.84,1,S3
43.0,14.0,-44.0,-17.72,0.115587,35.79,1,S2
-55.0,-5.0,34.0,3.58,0.367987,30.93,3,S3
-56.0,7.0,32.0,14.32,0.316242,31.73,4,S14
-19.0,-12.0,-60.0,20.76,0.125626,32.97,1,S4
-33.0,-6.0,-55.0,22.41,0.112834,33.11,1,S4
-41.0,-34.0,-17.0,19.72,0.33671,32.75,2,S14
-63.0,-4.0,15.0,-27.89,0.400018,31.09,4,S3
-16.0,62.0,8.0,33.75,2.490666,32.39,2,S4
-53.0,3.0,37.0,-177.41,0.526862,33.16,1,S3
-60.0,-6.0,24.0,-2.79,0.356455,30.97,3,S3
-33.0,-8.0,-55.0,-22.92,0.135859,32.91,1,S4
-17.0,61.0,14.0,24.81,2.154243,32.29,2,S4
-65.0,0.0,-4.0,-40.46,0.156326,32.77,4,S4
-44.0,-44.0,10.0,16.53,0.299611,32.95,2,S14
-65.0,-2.0,-2.0,28.63,0.156326,32.91,4,S4
-44.0,19.0,43.0,59.85,0.175513,32.73,3,S4
-64.0,13.0,-5.0,3.42,0.45255,30.65,4,S3
16.0,-59.0,13.0,-11.69,1.22657,32.59,2,S2
23.0,-60.0,20.0,271.84,0.738314,33.57,2,S2
-40.0,50.0,13.0,10.09,0.312404,31.77,3,S14
57.0,22.0,17.0,-28.91,0.355196,33.71,4,S2
-47.0,5.0,43.0,-54.42,0.21133,32.66,1,S4
54.0,24.0,22.0,-29.71,0.154027,35.87,1,S2
-15.0,62.0,11.0,-11.27,2.199014,32.31,2,S4
22.0,11.0,58.0,7.72,0.947339,35.71,1,S2
-18.0,61.0,2.0,44.8,1.970562,32.25,2,S4
-44.0,-47.0,9.0,26.03,0.274026,32.29,1,S14
15.0,-59.0,13.0,3.53,1.020275,33.07,2,S2
-53.0,-6.0,36.0,10.97,2.771903,32.79,1,S3
-56.0,8.0,32.0,13.8,0.313683,31.71,4,S14
-18.0,61.0,12.0,-2.16,0.320079,31.91,3,S14
-55.0,-4.0,33.0,-8.09,0.384643,30.93,3,S3
-35.0,-55.0,-35.0,27.29,0.343106,32.77,2,S14
-29.0,-48.0,30.0,16.62,0.334151,33.18,2,S14
54.0,26.0,20.0,12.3,0.433357,35.81,1,S2
62.0,0.0,12.0,-21.57,0.171965,34.41,4,S2
-38.0,63.0,10.0,77.32,0.34108,32.71,2,S3
-47.0,-4.0,43.0,-9.7,0.392331,30.87,3,S3
47.0,21.0,-37.0,8.3,0.098929,35.66,1,S2
-22.0,-11.0,-60.0,13.48,0.128184,32.97,1,S4
-65.0,-2.0,-2.0,17.23,0.14993,32.93,4,S4
-35.0,-9.0,-54.0,47.83,0.140976,32.89,1,S4
-37.0,-6.0,-53.0,36.28,0.311125,32.15,1,S14
-22.0,-58.0,9.0,23.41,0.286819,32.0,1,S14
-33.0,-8.0,-55.0,-44.97,0.147372,32.89,1,S4
-26.0,55.0,12.0,1.44,0.421799,32.59,2,S3
-50.0,6.0,41.0,4.22,0.631994,33.41,1,S3
58.0,17.0,20.0,-34.46,0.221937,35.75,1,S2
49.0,13.0,-38.0,14.07,0.127119,35.68,1,S2
39.0,-56.0,16.0,104.67,0.594804,33.84,2,S2
57.0,22.0,18.0,3.23,0.309068,33.71,4,S2
63.0,0.0,-4.0,-13.42,0.227062,34.34,3,S2
-63.0,-6.0,-2.0,18.51,0.316242,33.13,2,S14
-32.0,56.0,10.0,5.89,2.883372,32.53,2,S3
-26.0,62.0,2.0,61.92,2.537021,32.55,2,S4
-56.0,7.0,32.0,18.3,0.3188,31.69,4,S14
-21.0,-5.0,-61.0,-38.05,0.120509,33.07,1,S4
-40.0,-50.0,-10.0,-97.9,0.282981,32.18,1,S14
-29.0,56.0,10.0,2.07,2.591246,32.05,2,S3
-61.0,6.0,32.0,-118.4,0.144813,32.68,4,S4
-64.0,13.0,-5.0,10.58,0.460237,30.57,4,S3
-56.0,7.0,32.0,8.93,0.317521,31.73,4,S14
-66.0,-2.0,-2.0,-48.12,0.156326,32.91,4,S4
-21.0,-7.0,-61.0,-60.24,0.120509,33.05,1,S4
-21.0,-4.0,-61.0,29.05,0.120509,33.07,1,S4
57.0,23.0,17.0,-21.73,0.221937,33.63,4,S2
-67.0,-3.0,5.0,24.6,0.274026,32.29,1,S14
-38.0,-6.0,-54.0,29.07,0.10388,33.11,1,S4
-49.0,-1.0,-40.0,3.1,4.431487,32.43,2,S3
-18.0,60.0,12.0,1.54,0.320079,31.95,3,S14
-51.0,-6.0,38.0,2.63,0.385924,30.77,3,S3
-61.0,-19.0,-15.0,-7.48,0.847245,33.31,1,S3
-53.0,4.0,36.0,15.9,0.313683,32.53,4,S14
-59.0,-8.0,25.0,-30.5,4.386355,32.68,1,S3
-20.0,-4.0,-61.0,33.4,0.120509,33.03,1,S4
63.0,0.0,-4.0,5.54,0.221937,34.37,3,S2
53.0,26.0,20.0,-20.01,0.447451,35.79,1,S2
16.0,-58.0,18.0,-100.13,0.748564,33.66,2,S2
-17.0,-7.0,-60.0,-8.21,0.120509,33.03,1,S4
-44.0,-44.0,15.0,21.75,0.307287,33.07,2,S14
-56.0,7.0,32.0,21.2,0.317521,31.73,4,S14
54.0,26.0,22.0,24.83,0.813981,35.71,1,S2
-65.0,0.0,7.0,20.04,0.280422,32.27,1,S14
-43.0,-44.0,17.0,12.99,0.309845,32.99,2,S14
-39.0,-40.0,14.0,-26.1,0.341827,32.75,2,S14
-25.0,-31.0,-50.0,-27.12,0.128184,32.93,1,S4
-28.0,57.0,9.0,3.83,1.507389,31.87,2,S3
22.0,-52.0,27.0,15.97,0.567931,33.18,1,S3
-44.0,18.0,43.0,-51.6,0.174234,32.75,3,S4
-53.0,5.0,37.0,13.0,0.3188,32.39,4,S14
-25.0,-43.0,18.0,-3.94,0.344385,32.73,2,S14
-35.0,-36.0,31.0,-73.22,0.293215,32.09,1,S14
-63.0,-4.0,15.0,-28.71,0.401299,31.07,4,S3
18.0,-59.0,16.0,1.42,0.690904,33.71,2,S2
-20.0,61.0,14.0,-16.92,2.223839,32.16,2,S4
-55.0,-34.0,-13.0,14.99,0.279143,32.25,1,S14
-45.0,-7.0,45.0,7.24,5.39252,32.55,1,S3
-20.0,-14.0,58.0,3.04,4.857287,32.63,1,S3
-46.0,-4.0,35.0,-61.38,0.369268,30.97,3,S3
60.0,0.0,-19.0,12.36,0.168121,34.11,3,S2
57.0,23.0,17.0,22.43,0.183497,33.79,4,S2
-20.0,-6.0,-61.0,29.28,0.120509,33.07,1,S4
-33.0,-9.0,-55.0,10.83,0.14993,32.89,1,S4
-64.0,13.0,-5.0,-12.43,0.455112,30.61,4,S3
-21.0,59.0,9.0,-64.2,2.401124,32.66,2,S4
-65.0,11.0,-6.0,-21.23,0.464081,30.49,4,S3
42.0,13.0,-45.0,9.57,0.114305,35.84,1,S2
-23.0,-59.0,-8.0,-3.56,0.266351,32.23,1,S14
-54.0,4.0,36.0,6.86,0.3188,32.5,4,S14
-43.0,-1.0,48.0,-7.44,0.379518,33.13,1,S3
-30.0,-7.0,-57.0,-66.06,0.120509,33.07,1,S4
-56.0,8.0,31.0,-19.27,0.313683,31.63,4,S14
-65.0,0.0,8.0,20.16,0.197259,31.47,4,S4
-51.0,19.0,35.0,41.22,0.172955,32.77,3,S4
62.0,-1.0,12.0,18.87,0.145057,34.66,4,S2
43.0,14.0,-44.0,-37.0,0.116868,35.79,1,S2
-47.0,45.0,4.0,0.64,0.328268,30.83,4,S3
-54.0,3.0,36.0,4.61,0.311125,32.5,4,S14
56.0,23.0,17.0,-15.27,0.169403,34.34,4,S2
-52.0,-1.0,38.0,2.05,0.467925,33.16,1,S3
12.0,-55.0,14.0,-16.61,0.748564,34.05,2,S2
-20.0,-6.0,-61.0,8.6,0.121788,33.07,1,S4
-50.0,-4.0,40.0,-11.38,0.394893,30.75,3,S3
43.0,17.0,45.0,25.88,0.177091,35.91,1,S2
-32.0,6.0,53.0,-5.2,1.340528,32.57,2,S3
55.0,22.0,22.0,33.81,0.314193,35.83,1,S2
61.0,-1.0,-13.0,27.56,0.193748,34.23,3,S2
-45.0,-43.0,15.0,7.46,0.30217,32.97,2,S14
-19.0,-11.0,-61.0,-61.43,0.124346,32.99,1,S4
-16.0,62.0,8.0,-8.5,0.3188,31.95,3,S14
-28.0,-55.0,13.0,-28.21,0.26763,32.25,1,S14
-45.0,45.0,11.0,2.01,0.34108,30.91,4,S3
-33.0,54.0,17.0,26.52,2.026325,32.66,2,S4
-55.0,-30.0,13.0,12.4,0.370549,33.25,1,S3
-49.0,1.0,42.0,38.03,0.166559,32.83,3,S4
-19.0,-5.0,-61.0,-20.61,0.117951,33.07,1,S4
-47.0,45.0,4.0,-0.73,0.33083,30.85,4,S3
-19.0,60.0,12.0,-5.49,0.3188,31.99,3,S14
-66.0,-3.0,-2.0,23.01,0.155047,32.95,4,S4
-56.0,-27.0,9.0,10.06,1.76364,32.83,1,S3
-16.0,62.0,11.0,-45.32,2.072376,32.34,2,S4
-65.0,-1.0,6.0,7.58,0.185747,31.47,4,S4
-65.0,0.0,5.0,19.97,0.187026,31.49,4,S4
-36.0,-52.0,-6.0,2.24,0.280422,32.13,1,S14
-49.0,-3.0,41.0,16.16,0.391049,30.81,3,S3
-53.0,5.0,36.0,10.44,0.321359,32.43,4,S14
-35.0,-9.0,-54.0,1.59,0.151209,32.91,1,S4
-66.0,0.0,-1.0,25.25,2.375593,32.84,1,S3
40.0,13.0,-46.0,15.29,0.114305,35.95,1,S2
-58.0,-4.0,-35.0,-24.99,0.323143,32.65,2,S3
-55.0,74.0,33.0,62.78,2.101797,32.33,2,S4
-65.0,0.0,5.0,4.31,0.187026,31.49,4,S4
-56.0,8.0,31.0,-18.74,0.313683,31.65,4,S14
-65.0,-2.0,-2.0,26.4,0.157605,32.84,4,S4
-29.0,-55.0,11.0,6.23,0.268909,32.07,1,S14
-62.0,2.0,19.0,0.04,0.197259,31.39,4,S4
63.0,0.0,11.0,8.92,0.248845,34.0,4,S2
-64.0,14.0,-6.0,-6.59,0.458956,30.57,4,S3
57.0,22.0,17.0,5.38,0.30138,33.68,4,S2
-58.0,-24.0,5.0,-195.75,0.368691,32.89,2,S14
-46.0,45.0,11.0,-4.94,0.342362,30.93,4,S3
28.0,57.0,3.0,-5.54,0.270628,34.09,3,S2
41.0,13.0,-46.0,-22.35,0.113024,35.93,1,S2
-65.0,-1.0,8.0,15.83,0.194701,31.49,4,S4
-54.0,-35.0,-12.0,-3.07,0.35334,32.81,2,S14
-63.0,-4.0,14.0,-13.45,0.401299,31.11,4,S3
-64.0,14.0,-4.0,3.71,0.443581,30.59,4,S3
-32.0,55.0,6.0,-62.68,0.398737,32.65,2,S3
-54.0,8.0,35.0,8.2,0.320079,32.37,4,S14
-54.0,-31.0,14.0,7.03,0.364143,33.25,1,S3
-55.0,38.0,0.0,265.66,2.006379,32.71,2,S4
-54.0,4.0,35.0,-15.52,0.308566,32.5,4,S14
-37.0,-52.0,-10.0,-77.56,0.281702,32.23,1,S14
-56.0,8.0,31.0,-10.67,0.313683,31.61,4,S14
-29.0,57.0,7.0,8.41,1.881515,31.93,2,S3
-45.0,-32.0,-34.0,9.58,0.280422,32.11,1,S14
-53.0,4.0,36.0,15.92,0.3188,32.53,4,S14
60.0,0.0,-20.0,7.47,0.145057,34.07,3,S2
61.0,0.0,-16.0,-16.69,0.183497,34.16,3,S2
-47.0,-37.0,-26.0,30.36,0.290656,32.16,1,S14
-24.0,59.0,2.0,-3.11,2.289835,32.47,2,S4
-31.0,-8.0,-54.0,17.47,0.178072,32.91,1,S4
62.0,1.0,11.0,11.75,0.216812,34.09,4,S2
-19.0,62.0,4.0,-23.77,2.77111,32.45,2,S4
62.0,1.0,11.0,3.98,0.303942,34.07,4,S2
-46.0,-35.0,-3.0,-53.81,0.341827,32.65,2,S14
26.0,-49.0,27.0,-7.41,0.553838,33.18,1,S3
41.0,13.0,-45.0,-24.51,0.113024,35.91,1,S2
-64.0,11.0,-10.0,14.31,0.465362,30.49,4,S3
-65.0,-3.0,-3.0,-39.47,0.153767,32.95,4,S4
-61.0,-4.0,21.0,-215.59,1.299626,32.81,1,S3
-36.0,-32.0,19.0,10.52,0.106438,33.09,1,S4
-39.0,-50.0,-7.0,-30.13,0.290656,32.05,1,S14
57.0,26.0,-8.0,0.35,0.095085,35.61,1,S2
62.0,0.0,10.0,11.2,0.293692,34.03,4,S2
-55.0,-4.0,34.0,-4.05,0.411549,33.15,1,S3
-56.0,8.0,31.0,-6.26,0.312404,31.71,4,S14
-65.0,-2.0,-2.0,19.87,0.158884,32.84,4,S4
-53.0,6.0,36.0,8.17,0.320079,32.43,4,S14
54.0,26.0,21.0,16.95,0.095085,35.93,1,S2
-19.0,-6.0,-61.0,23.0,0.120509,33.05,1,S4
60.0,0.0,-20.0,-20.53,0.207842,34.27,3,S2
-65.0,-2.0,-2.0,-18.6,0.158884,32.87,4,S4
56.0,23.0,17.0,-24.37,0.178372,34.13,4,S2
-56.0,7.0,32.0,6.96,0.317521,31.73,4,S14
57.0,16.0,23.0,7.23,0.214249,35.77,1,S2
-45.0,-45.0,-20.0,46.33,0.198538,32.83,1,S4
16.0,-59.0,13.0,10.18,1.074091,32.77,2,S2
2.0,-54.0,31.0,-4.43,0.373112,30.73,3,S3
15.0,-60.0,13.0,3.89,1.058715,33.03,2,S2
-32.0,55.0,12.0,6.51,4.057361,32.39,2,S3
-39.0,50.0,11.0,-37.51,0.313683,31.77,3,S14
-34.0,-9.0,-54.0,11.62,0.148651,32.91,1,S4
-36.0,-9.0,-53.0,32.95,0.176793,32.89,1,S4
-54.0,4.0,35.0,-8.29,0.311125,32.5,4,S14
16.0,-58.0,14.0,-9.5,0.948521,33.27,2,S2
-64.0,13.0,-5.0,-4.87,0.456393,30.57,4,S3
-63.0,-4.0,15.0,3.49,0.401299,31.09,4,S3
-66.0,-1.0,2.0,90.86,0.183188,31.47,4,S4
-56.0,8.0,32.0,3.75,0.308566,31.59,4,S14
-31.0,-9.0,-57.0,25.66,0.169117,32.89,1,S4
-17.0,62.0,11.0,-76.27,2.46892,32.49,2,S4
-62.0,0.0,20.0,20.78,0.33543,33.21,2,S14
40.0,13.0,-47.0,-2.72,0.113024,35.95,1,S2
-53.0,5.0,36.0,-1.19,0.3188,32.39,4,S14
-89.0,46.0,8.0,94.65,0.361015,32.84,2,S14
-59.0,-25.0,-7.0,6.14,1.083095,33.18,1,S3
-32.0,-9.0,-55.0,104.38,0.181909,32.93,1,S4
-56.0,7.0,32.0,18.88,0.3188,31.73,4,S14
-42.0,-2.0,48.0,4.54,0.400018,33.13,1,S3
4.0,5.0,64.0,5.28,0.25397,35.77,1,S2
60.0,1.0,-15.0,-99.16,0.182216,34.37,3,S2
-17.0,-7.0,-62.0,-62.92,0.121788,33.07,1,S4
-20.0,-11.0,-59.0,-42.13,0.125626,33.0,1,S4
-61.0,-3.0,21.0,5.98,1.300908,32.83,1,S3
-34.0,-44.0,-33.0,2.65,0.26763,32.29,1,S14
54.0,24.0,22.0,16.28,0.152745,35.89,1,S2
57.0,23.0,17.0,-9.73,0.178372,33.95,4,S2
62.0,1.0,-3.0,5.94,0.188623,34.33,3,S2
-54.0,4.0,35.0,17.06,0.304728,32.49,4,S14
-45.0,72.0,-14.0,3.63,5.55524,32.29,2,S3
-55.0,-4.0,34.0,5.78,0.417956,33.16,1,S3
-56.0,7.0,32.0,14.38,0.316242,31.75,4,S14
-51.0,19.0,35.0,33.45,0.170397,32.77,3,S4
-35.0,-42.0,-36.0,8.96,0.28426,32.18,1,S14
-52.0,3.0,38.0,13.87,0.537112,33.16,1,S3
-28.0,54.0,-1.0,27.09,2.451011,32.45,2,S4
-23.0,-12.0,-59.0,39.0,0.125626,32.97,1,S4
-29.0,57.0,12.0,-7.01,1.661139,31.91,2,S3
-65.0,0.0,-5.0,-70.34,0.158884,32.79,4,S4
63.0,0.0,-5.0,5.72,0.188623,34.31,3,S2
-53.0,-46.0,-9.0,-32.84,0.348223,32.73,2,S14
-66.0,0.0,-5.0,-36.12,0.160163,32.79,4,S4
-17.0,-8.0,-61.0,32.68,0.123067,33.07,1,S4
-49.0,6.0,41.0,10.29,0.64865,33.41,1,S3
-22.0,-12.0,-59.0,-1.77,0.125626,32.97,1,S4
-42.0,-2.0,48.0,0.18,0.397456,33.13,1,S3
-44.0,-45.0,13.0,-16.28,0.299611,33.09,2,S14
10.0,-56.0,25.0,6.95,0.598682,33.21,1,S3
50.0,31.0,24.0,9.57,0.384666,35.84,1,S2
-64.0,13.0,-6.0,8.88,0.455112,30.59,4,S3
31.0,-48.0,14.0,127.61,0.611462,34.0,2,S2
-46.0,-41.0,-35.0,-11.0,0.340547,32.77,2,S14
-48.0,45.0,3.0,3.0,0.33083,30.81,4,S3
-17.0,-8.0,-61.0,-13.65,0.120509,33.05,1,S4
-52.0,0.0,38.0,7.09,0.474331,33.16,1,S3
-44.0,19.0,43.0,-71.19,0.172955,32.75,3,S4
-54.0,-2.0,15.0,-2.18,0.282981,32.21,1,S14
-48.0,-36.0,-25.0,27.25,0.28426,32.09,1,S14
-57.0,-12.0,-37.0,-19.92,0.983058,33.29,1,S3
62.0,0.0,11.0,-15.79,0.283441,34.03,4,S2
-64.0,13.0,-6.0,3.58,0.469206,30.49,4,S3
15.0,-59.0,14.0,1.91,1.027964,33.09,2,S2
45.0,36.0,13.0,-85.03,0.862672,35.71,1,S2
15.0,-61.0,16.0,8.29,0.692186,34.05,2,S2
-54.0,4.0,36.0,-5.43,0.320079,32.53,4,S14
-40.0,-36.0,-7.0,16.08,0.341827,32.75,2,S14
62.0,0.0,12.0,10.2,0.143776,34.71,4,S2
-25.0,-59.0,-8.0,12.1,0.272747,32.31,1,S14
56.0,17.0,25.0,2.9,0.2245,35.77,1,S2
-64.0,13.0,-6.0,-1.2,0.460237,30.53,4,S3
15.0,-59.0,14.0,-16.27,1.017713,33.11,2,S2
-38.0,61.0,10.0,-13.31,1.843077,31.93,2,S3
-42.0,-46.0,-16.0,23.92,0.308566,32.18,1,S14
-48.0,-34.0,-27.0,-29.13,0.290656,32.15,1,S14
5.0,-43.0,47.0,8.01,2.20903,32.84,1,S3
-43.0,-2.0,47.0,2.82,0.387206,33.15,1,S3
-20.0,-6.0,-62.0,23.13,0.120509,33.09,1,S4
-22.0,-59.0,-8.0,3.58,0.265071,32.25,1,S14
8.0,-57.0,25.0,17.18,0.589713,33.18,1,S3
-46.0,-34.0,23.0,0.93,0.322638,33.09,2,S14
59.0,21.0,2.0,11.38,0.091241,35.61,1,S2
-40.0,-51.0,-8.0,-37.58,0.282981,32.21,1,S14
-48.0,18.0,38.0,-97.73,0.184468,32.79,3,S4
-47.0,-8.0,43.0,0.65,6.10139,32.63,1,S3
-44.0,-27.0,-39.0,25.33,0.290656,32.15,1,S14
-46.0,45.0,10.0,1.33,0.339799,30.91,4,S3
-20.0,-4.0,-61.0,35.75,0.121788,33.07,1,S4
9.0,-60.0,15.0,-29.93,0.716531,33.63,2,S2
16.0,-59.0,13.0,16.34,0.967741,33.29,2,S2
-61.0,-19.0,-15.0,2.48,0.865182,33.27,1,S3
-56.0,8.0,31.0,7.68,0.313683,31.61,4,S14
19.0,-59.0,13.0,10.44,0.665278,33.77,2,S2
-64.0,11.0,-10.0,8.36,0.466643,30.45,4,S3
47.0,28.0,28.0,-34.58,0.348789,35.89,1,S2
18.0,-60.0,16.0,-27.34,1.093311,33.25,2,S2
57.0,23.0,17.0,-29.68,0.173247,34.27,4,S2
-49.0,1.0,41.0,-30.95,0.170397,32.77,3,S4
-37.0,51.0,-22.0,103.05,1.430452,32.73,2,S4
-26.0,-36.0,-28.0,-67.87,0.337989,32.65,2,S14
-61.0,-5.0,21.0,20.71,2.566902,32.75,1,S3
42.0,13.0,-45.0,20.1,0.113024,35.84,1,S2
56.0,25.0,17.0,-14.36,0.101492,35.89,1,S2
-37.0,-38.0,-38.0,15.66,0.289377,32.15,1,S14
-53.0,4.0,36.0,7.25,0.312404,32.5,4,S14
-45.0,-1.0,46.0,3.12,0.367987,30.97,3,S3
62.0,0.0,12.0,21.3,0.159152,34.59,4,S2
-64.0,-7.0,-13.0,-17.93,0.188305,32.87,1,S4
58.0,25.0,6.0,-5.39,0.116868,35.87,1,S2
-24.0,-58.0,10.0,43.22,0.286819,32.03,1,S14
-29.0,57.0,13.0,-5.22,3.356594,32.49,2,S3
52.0,21.0,31.0,63.89,0.497492,35.83,1,S2
62.0,1.0,11.0,-25.98,0.236032,33.99,4,S2
57.0,22.0,18.0,7.48,0.324444,33.71,4,S2
-62.0,2.0,19.0,-13.92,0.193422,31.43,4,S4
57.0,22.0,17.0,-1.64,0.347508,33.68,4,S2
-36.0,-41.0,-33.0,14.11,0.341827,32.77,2,S14
56.0,23.0,17.0,-18.58,0.170684,34.34,4,S2
60.0,0.0,-20.0,-4.78,0.14762,34.07,3,S2
-64.0,13.0,-6.0,-3.06,0.466643,30.55,4,S3
41.0,-46.0,-7.0,34.13,0.720375,33.66,2,S2
-19.0,-6.0,-61.0,-34.74,0.120509,33.07,1,S4
-56.0,-30.0,13.0,-12.59,0.369268,33.25,1,S3
-53.0,-29.0,8.0,50.41,0.352061,32.84,2,S14
-31.0,-55.0,9.0,-36.52,0.266351,32.07,1,S14
-37.0,-7.0,-52.0,-59.25,0.313683,32.11,1,S14
-56.0,-4.0,32.0,-4.34,1.361127,32.81,1,S3
-52.0,1.0,38.0,-0.12,1.186876,32.97,1,S3
-63.0,1.0,17.0,-6.05,0.181909,31.45,4,S4
61.0,-1.0,-15.0,8.79,0.179653,34.15,3,S2
-24.0,60.0,-2.0,-38.69,3.055087,32.53,2,S4
49.0,11.0,-40.0,-133.11,0.101492,35.65,1,S2
-65.0,-1.0,9.0,-25.48,0.281702,32.21,1,S14
42.0,13.0,-45.0,-15.77,0.114305,35.89,1,S2
55.0,19.0,23.0,33.43,0.195029,35.81,1,S2
-48.0,-35.0,-24.0,-19.63,0.285539,32.07,1,S14
44.0,28.0,40.0,-37.93,0.489804,35.83,1,S2
18.0,-60.0,15.0,-80.8,0.588398,33.84,2,S2
-46.0,45.0,10.0,0.26,0.339799,30.91,4,S3
47.0,22.0,-36.0,-3.4,0.102773,35.66,1,S2
-20.0,-6.0,-62.0,-49.59,0.121788,33.07,1,S4
-64.0,-5.0,9.0,14.47,0.412831,31.03,4,S3
-61.0,-20.0,-8.0,-16.95,0.751151,33.43,1,S3
-54.0,3.0,36.0,19.24,0.312404,32.5,4,S14
-32.0,-7.0,-56.0,19.26,0.121788,33.07,1,S4
-30.0,-54.0,10.0,12.28,0.270188,32.18,1,S14
-60.0,-29.0,-10.0,111.32,0.10388,33.09,1,S4
-34.0,-26.0,-51.0,5.09,0.346944,32.81,2,S14
-61.0,-19.0,-15.0,1.84,0.799838,33.39,1,S3
-50.0,6.0,41.0,-7.35,0.634557,33.37,1,S3
-43.0,-36.0,-33.0,17.85,0.275305,32.07,1,S14
-60.0,-19.0,-27.0,-58.23,0.10388,33.11,1,S4
-66.0,-4.0,12.0,25.69,1.524045,32.84,1,S3
-55.0,-4.0,32.0,68.99,1.359845,32.81,1,S3
-64.0,-5.0,12.0,25.99,0.279143,32.27,1,S14
-46.0,0.0,45.0,6.89,0.371831,30.97,3,S3
57.0,23.0,17.0,0.78,0.246282,33.61,4,S2
-35.0,-47.0,-26.0,4.95,0.268909,32.27,1,S14
-46.0,-5.0,43.0,8.32,0.389768,30.87,3,S3
-19.0,60.0,11.0,8.22,0.320079,31.99,3,S14
-61.0,-19.0,-15.0,2.19,0.826745,33.34,1,S3
49.0,12.0,-37.0,39.5,0.121993,35.65,1,S2
-23.0,-59.0,-8.0,12.13,0.265071,32.23,1,S14
-54.0,-21.0,-38.0,84.89,0.334151,32.65,2,S14
-61.0,-25.0,-6.0,7.08,1.057469,33.25,1,S3
64.0,-1.0,0.0,99.25,0.130963,35.53,1,S2
-54.0,4.0,36.0,-3.63,0.3188,32.49,4,S14
54.0,11.0,-31.0,34.81,0.143776,35.91,1,S2
-65.0,-2.0,-8.0,-50.71,0.160163,32.83,4,S4
-18.0,62.0,12.0,231.08,2.133776,32.31,2,S4
-63.0,-6.0,15.0,2.8,0.407706,31.07,4,S3
-66.0,-3.0,-3.0,-31.24,0.152488,32.95,4,S4
-47.0,-4.0,44.0,-10.79,0.393612,30.85,3,S3
-34.0,-55.0,3.0,7.69,0.274026,32.31,1,S14
-40.0,-33.0,-23.0,26.97,0.334151,32.65,2,S14
-18.0,61.0,11.0,-11.97,0.320079,31.87,3,S14
-53.0,6.0,36.0,7.54,0.320079,32.37,4,S14
-54.0,-36.0,-5.0,5.49,2.028373,32.84,1,S3
-43.0,0.0,47.0,2.34,0.364143,30.97,3,S3
58.0,25.0,-7.0,-15.62,0.098929,35.65,1,S2
-64.0,13.0,-6.0,3.76,0.453831,30.61,4,S3
16.0,-59.0,13.0,0.53,1.042058,33.05,2,S2
-8.0,-54.0,31.0,2.25,0.394893,30.91,3,S3
26.0,38.0,46.0,17.65,0.707631,35.73,1,S2
57.0,23.0,17.0,22.86,0.187341,33.73,4,S2
-45.0,-5.0,45.0,1.24,0.378237,30.83,3,S3
-66.0,-1.0,5.0,-21.83,0.183188,31.45,4,S4
-63.0,13.0,-6.0,-16.19,0.469206,30.53,4,S3
16.0,-58.0,16.0,-66.42,0.9088,33.43,2,S2
-53.0,5.0,36.0,15.8,0.321359,32.43,4,S14
-65.0,0.0,5.0,15.87,0.190863,31.49,4,S4
-43.0,-46.0,12.0,-26.7,0.291936,32.16,1,S14
62.0,1.0,11.0,-16.89,0.212968,34.09,4,S2
-65.0,-1.0,7.0,38.87,0.190863,31.49,4,S4
-31.0,-8.0,-56.0,-4.21,0.140976,32.91,1,S4
16.0,-59.0,15.0,-68.24,0.851071,33.57,2,S2
-56.0,8.0,32.0,-3.67,0.314962,31.71,4,S14
-54.0,4.0,36.0,-12.52,0.313683,32.49,4,S14
-24.0,-57.0,11.0,29.09,0.289377,32.11,1,S14
-19.0,-6.0,-61.0,56.92,0.121788,33.09,1,S4
-63.0,15.0,-6.0,-26.53,0.469206,30.49,4,S3
57.0,23.0,17.0,-15.7,0.178372,33.95,4,S2
62.0,1.0,11.0,11.74,0.238594,33.99,4,S2
-49.0,-40.0,-12.0,30.01,0.306008,32.11,1,S14
63.0,1.0,10.0,13.16,0.306505,34.09,4,S2
5.0,-54.0,30.0,1.34,0.406424,30.87,3,S3
28.0,57.0,3.0,-2.91,0.255252,34.09,3,S2
-46.0,-37.0,-26.0,41.18,0.289377,32.18,1,S14
19.0,14.0,58.0,-106.55,0.183497,35.91,1,S2
-33.0,55.0,11.0,1.6,3.683234,32.16,2,S3
-41.0,-34.0,-28.0,38.62,0.340547,32.68,2,S14
-39.0,51.0,11.0,-61.93,0.313683,31.77,3,S14
60.0,0.0,-21.0,5.97,0.20528,34.25,3,S2
62.0,0.0,12.0,-8.66,0.155308,34.61,4,S2
57.0,23.0,17.0,-28.74,0.174528,34.25,4,S2
-65.0,0.0,6.0,-42.39,0.187026,31.49,4,S4
-55.0,-4.0,34.0,-2.86,0.367987,30.93,3,S3
-56.0,7.0,32.0,21.13,0.316242,31.73,4,S14
-50.0,-35.0,-22.0,-46.26,0.28426,32.09,1,S14
-19.0,61.0,10.0,48.7,2.738826,32.45,2,S4
-63.0,-5.0,21.0,-29.4,1.209939,32.89,1,S3
41.0,13.0,-46.0,16.08,0.113024,35.93,1,S2
45.0,32.0,29.0,-10.43,0.497492,35.83,1,S2
-44.0,18.0,43.0,-102.81,0.174234,32.75,3,S4
49.0,12.0,-37.0,29.41,0.104055,35.73,1,S2
-53.0,4.0,36.0,9.53,0.3188,32.5,4,S14
-65.0,-2.0,-1.0,-41.06,0.153767,32.93,4,S4
-43.0,-2.0,48.0,2.12,0.384643,33.15,1,S3
-42.0,-2.0,48.0,-3.24,0.375674,33.13,1,S3
-33.0,-8.0,-55.0,13.43,0.155047,32.87,1,S4
20.0,14.0,57.0,-40.97,0.296254,35.79,1,S2
-65.0,-2.0,-2.0,23.08,0.156326,32.91,4,S4
-43.0,0.0,47.0,-1.01,0.366706,30.97,3,S3
41.0,13.0,-46.0,2.92,0.114305,35.93,1,S2
58.0,26.0,-7.0,-20.71,0.096367,35.65,1,S2
-47.0,-39.0,-11.0,38.19,0.286819,32.18,1,S14
-62.0,1.0,19.0,2.15,0.19598,31.43,4,S4
-42.0,-2.0,48.0,4.13,0.394893,33.15,1,S3
14.0,-59.0,17.0,23.2,0.184468,31.45,4,S4
-63.0,-1.0,-15.0,4.86,0.151209,32.77,4,S4
62.0,0.0,12.0,-19.84,0.157871,34.63,4,S2
-56.0,8.0,31.0,12.03,0.317521,31.77,4,S14
-56.0,8.0,32.0,13.04,0.314962,31.71,4,S14
17.0,-59.0,14.0,-55.51,1.131751,32.65,2,S2
-54.0,10.0,33.0,4.69,0.320079,31.67,4,S14
61.0,0.0,-16.0,20.69,0.212968,34.27,3,S2
-62.0,1.0,20.0,10.31,0.188305,31.41,4,S4
-17.0,-8.0,-62.0,-8.55,0.121788,33.07,1,S4
17.0,-59.0,12.0,-0.28,0.615306,33.89,2,S2
-20.0,-6.0,-61.0,-73.18,0.120509,33.07,1,S4
-37.0,-8.0,-52.0,14.23,0.307287,32.15,1,S14
-65.0,-2.0,-2.0,-19.58,0.147372,32.89,4,S4
-32.0,56.0,9.0,1.72,3.095219,32.13,2,S3
-53.0,-35.0,-18.0,27.29,0.290656,32.16,1,S14
-28.0,56.0,-9.0,-9.99,1.982074,32.73,2,S4
-62.0,1.0,19.0,-35.4,0.192143,31.39,4,S4
43.0,13.0,-44.0,16.26,0.114305,35.81,1,S2
52.0,16.0,30.0,-28.24,0.840889,35.68,1,S2
51.0,21.0,30.0,-41.24,0.497492,35.87,1,S2
-44.0,19.0,43.0,56.11,0.178072,32.71,3,S4
-64.0,0.0,7.0,-14.24,0.185747,31.49,4,S4
-51.0,-34.0,-22.0,82.07,0.291936,32.05,1,S14
15.0,-59.0,13.0,-37.2,1.0049,33.25,2,S2
-50.0,7.0,40.0,13.02,0.599963,33.27,1,S3
56.0,19.0,24.0,1.45,0.183497,35.87,1,S2
-46.0,-4.0,44.0,4.11,0.406424,30.83,3,S3
-63.0,2.0,16.0,6.48,0.18063,31.41,4,S4
-33.0,-8.0,-55.0,18.89,0.139696,32.91,1,S4
-19.0,60.0,12.0,6.42,0.3188,31.93,3,S14
62.0,0.0,12.0,13.16,0.150183,34.61,4,S2
-63.0,-8.0,13.0,-21.11,2.056561,32.84,1,S3
18.0,-59.0,11.0,-10.34,0.589679,33.79,2,S2
-40.0,-48.0,-3.0,-50.74,0.306008,32.16,1,S14
-42.0,-2.0,48.0,1.03,0.410268,33.13,1,S3
-46.0,44.0,11.0,-1.5,0.347487,30.93,4,S3
-20.0,60.0,13.0,9.78,2.356353,32.39,2,S4
-29.0,59.0,6.0,-1.78,1.35626,32.73,2,S4
-64.0,14.0,-5.0,-14.04,0.441018,30.65,4,S3
-64.0,12.0,-7.0,22.11,0.469206,30.51,4,S3
-66.0,-2.0,-3.0,28.53,0.153767,32.91,4,S4
-65.0,1.0,-16.0,-4.32,0.344924,32.73,2,S3
-54.0,-7.0,35.0,16.79,4.019917,32.66,1,S3
-28.0,57.0,4.0,6.21,2.493529,32.57,2,S4
40.0,13.0,-47.0,12.9,0.111743,35.95,1,S2
-34.0,-6.0,-55.0,-30.71,0.115392,33.11,1,S4
-54.0,4.0,36.0,9.56,0.313683,32.5,4,S14
56.0,23.0,17.0,5.67,0.2245,33.63,4,S2
-31.0,-8.0,-56.0,75.0,0.11923,33.11,1,S4
-64.0,13.0,-5.0,7.45,0.460237,30.57,4,S3
-18.0,-7.0,-60.0,33.55,0.120509,33.07,1,S4
-65.0,0.0,-6.0,30.81,0.156326,32.77,4,S4
-18.0,59.0,6.0,-9.77,3.111371,32.55,2,S4
62.0,0.0,12.0,3.62,0.184779,34.29,4,S2
-66.0,0.0,4.0,-7.17,0.183188,31.47,4,S4
-27.0,16.0,54.0,6.29,1.017652,32.55,2,S3
15.0,-58.0,14.0,132.99,0.754971,34.07,2,S2
16.0,-60.0,15.0,-57.69,1.011306,33.34,2,S2
42.0,29.0,40.0,28.15,0.123275,35.91,1,S2
-62.0,2.0,19.0,-48.64,0.197259,31.41,4,S4
-64.0,13.0,-5.0,10.52,0.443581,30.65,4,S3
-64.0,13.0,-6.0,5.23,0.469206,30.49,4,S3
10.0,-59.0,20.0,6.39,0.184468,31.47,4,S4
-22.0,59.0,23.0,71.29,2.520087,32.39,2,S4
-38.0,-8.0,-52.0,1.54,0.303449,32.21,1,S14
43.0,14.0,-44.0,26.3,0.115587,35.79,1,S2
-62.0,-28.0,20.0,14.27,1.063876,33.25,1,S3
-65.0,0.0,-4.0,34.55,0.14993,32.75,4,S4
-16.0,62.0,10.0,152.39,2.15936,32.34,2,S4
-54.0,-33.0,-21.0,-9.9,0.33671,32.66,2,S14
41.0,13.0,-46.0,5.01,0.115587,35.95,1,S2
-29.0,57.0,9.0,14.38,1.526608,31.85,2,S3
-38.0,-24.0,-40.0,50.44,0.339268,32.66,2,S14
55.0,23.0,22.0,-1.1,0.148901,35.89,1,S2
-54.0,-4.0,34.0,1.37,0.408987,33.13,1,S3
-64.0,-5.0,4.0,4.74,1.548389,32.87,1,S3
20.0,11.0,59.0,-27.04,1.147226,35.75,1,S2
-46.0,45.0,10.0,1.02,0.338518,30.91,4,S3
-46.0,-44.0,2.0,-47.4,0.282981,32.07,1,S14
54.0,7.0,-6.0,-9.1,0.092523,35.66,1,S2
-35.0,-10.0,-54.0,3.81,0.107717,33.09,1,S4
56.0,25.0,19.0,3.53,0.516643,35.81,1,S2
16.0,-60.0,13.0,-53.81,1.204787,32.59,2,S2
-64.0,-3.0,10.0,22.06,0.33671,33.18,2,S14
-19.0,61.0,11.0,9.4,0.3188,31.99,3,S14
-34.0,-9.0,-54.0,26.26,0.144813,32.89,1,S4
-23.0,-59.0,-8.0,11.95,0.265071,32.23,1,S14
62.0,1.0,11.0,12.33,0.197592,34.18,4,S2
-56.0,-14.0,5.0,1.93,0.357178,32.87,2,S14
-45.0,-7.0,20.0,-64.94,0.10388,33.07,1,S4
-42.0,-41.0,5.0,-42.08,0.289377,32.15,1,S14
-65.0,-2.0,-2.0,-72.3,0.157605,32.87,4,S4
-22.0,60.0,6.0,-21.52,2.361469,32.47,2,S4
-15.0,58.0,16.0,-1.03,2.031442,32.29,2,S4
-21.0,-6.0,-61.0,-1.31,0.120509,33.07,1,S4
-54.0,4.0,35.0,15.93,0.304728,32.53,4,S14
-62.0,1.0,19.0,21.19,0.190863,31.39,4,S4
-63.0,10.0,-11.0,-10.28,0.467925,30.45,4,S3
56.0,24.0,17.0,75.32,0.347508,35.89,1,S2
62.0,1.0,11.0,-22.98,0.29241,34.03,4,S2
-65.0,-3.0,-3.0,25.54,0.155047,32.95,4,S4
78.0,-3.0,18.0,-347.57,0.104055,35.57,1,S2
-48.0,19.0,38.0,-72.22,0.202376,32.77,3,S4
-65.0,-2.0,-2.0,-18.48,0.156326,32.91,4,S4
42.0,13.0,-46.0,14.03,0.114305,35.91,1,S2
-44.0,19.0,43.0,24.12,0.172955,32.75,3,S4
-44.0,18.0,43.0,28.84,0.174234,32.75,3,S4
-56.0,8.0,31.0,16.31,0.312404,31.65,4,S14
42.0,34.0,32.0,-32.19,0.493648,35.83,1,S2
-65.0,0.0,-4.0,-57.33,0.151209,32.75,4,S4
63.0,0.0,-6.0,-18.46,0.193748,34.34,3,S2
-56.0,7.0,31.0,-3.39,0.3188,31.75,4,S14
-65.0,-3.0,-3.0,33.94,0.156326,32.95,4,S4
-54.0,4.0,35.0,-29.35,0.309845,32.49,4,S14
-42.0,8.0,48.0,-3.83,0.573056,33.23,1,S3
-41.0,-49.0,-11.0,-18.71,0.289377,32.09,1,S14
-47.0,-4.0,43.0,-1.4,0.396174,30.83,3,S3
-46.0,44.0,11.0,1.13,0.346205,30.97,4,S3
-29.0,58.0,-13.0,39.93,2.376819,32.49,2,S4
-42.0,-36.0,-31.0,16.76,0.279143,32.21,1,S14
-54.0,-4.0,35.0,8.1,0.378237,30.95,3,S3
-53.0,5.0,36.0,-6.52,0.316242,32.45,4,S14
-53.0,6.0,37.0,-9.73,0.321359,32.39,4,S14
58.0,26.0,2.0,-24.6,0.096367,35.68,1,S2
-64.0,-2.0,13.0,-13.46,0.332872,33.15,2,S14
-15.0,-48.0,-39.0,32.25,0.112834,33.05,1,S4
-56.0,7.0,31.0,17.43,0.312404,31.59,4,S14
-29.0,57.0,9.0,-1.97,1.731608,31.93,2,S3
43.0,20.0,41.0,63.19,1.117756,35.75,1,S2
-54.0,-16.0,-27.0,-230.85,0.1026,33.05,1,S4
-47.0,44.0,11.0,0.13,0.352612,30.95,4,S3
56.0,-1.0,-19.0,16.02,0.171965,34.39,3,S2
-57.0,-19.0,-3.0,-207.98,0.101321,33.07,1,S4
-62.0,2.0,19.0,31.44,0.193422,31.39,4,S4
-54.0,-35.0,-6.0,-20.51,2.068092,32.87,1,S3
62.0,0.0,-15.0,-18.21,0.197592,34.18,3,S2
-30.0,56.0,10.0,3.79,2.258999,31.99,2,S3
-38.0,-52.0,-5.0,10.49,2.319218,32.71,1,S3
-65.0,-2.0,-9.0,45.68,0.161442,32.84,4,S4
-32.0,-8.0,-56.0,11.86,0.140976,32.89,1,S4
61.0,-1.0,9.0,-50.35,0.134807,35.53,1,S2
-37.0,58.0,10.0,3.4,2.848376,32.53,2,S3
-51.0,-31.0,-36.0,36.35,0.33671,32.65,2,S14
-49.0,-36.0,4.0,4.08,0.339268,32.75,2,S14
-36.0,-48.0,-28.0,28.49,0.28426,32.11,1,S14
-55.0,-5.0,34.0,9.2,0.367987,30.95,3,S3
-26.0,-9.0,-57.0,-44.47,0.11923,33.05,1,S4
-24.0,60.0,1.0,24.57,2.365307,32.49,2,S4
-46.0,-40.0,-21.0,30.37,0.28426,32.23,1,S14
-18.0,61.0,10.0,-4.65,0.320079,31.85,3,S14
57.0,23.0,17.0,-29.99,0.171965,34.33,4,S2
-32.0,-7.0,-56.0,32.08,0.120509,33.07,1,S4
-64.0,11.0,-9.0,5.29,0.466643,30.49,4,S3
-56.0,8.0,31.0,4.68,0.313683,31.71,4,S14
-64.0,14.0,-4.0,5.46,0.439737,30.63,4,S3
-30.0,57.0,9.0,5.9,2.232093,32.0,2,S3
-64.0,14.0,-5.0,4.46,0.441018,30.65,4,S3
29.0,57.0,4.0,-36.96,0.248845,34.09,3,S2
-64.0,14.0,-4.0,10.0,0.441018,30.63,4,S3
-51.0,-16.0,-40.0,75.93,0.101321,33.09,1,S4
-43.0,-44.0,17.0,-13.41,0.311125,33.0,2,S14
-19.0,-6.0,-61.0,39.56,0.121788,33.07,1,S4
-44.0,19.0,43.0,-85.69,0.172955,32.73,3,S4
17.0,-58.0,14.0,-15.37,0.954928,33.27,2,S2
49.0,-47.0,10.0,35.77,0.754971,33.66,2,S2
-63.0,-7.0,-16.0,-22.76,0.19598,32.83,1,S4
-50.0,1.0,41.0,-74.25,0.161442,32.83,3,S4
-63.0,-4.0,15.0,17.8,0.400018,31.09,4,S3
6.0,-55.0,29.0,12.58,0.366706,30.85,3,S3
-49.0,-3.0,41.0,16.82,0.385924,30.83,3,S3
-44.0,18.0,43.0,4.6,0.175513,32.73,3,S4
-64.0,14.0,-6.0,9.27,0.4628,30.55,4,S3
8.0,-53.0,32.0,4.22,0.369268,30.85,3,S3
-64.0,13.0,-5.0,3.37,0.446143,30.65,4,S3
-31.0,56.0,9.0,-4.0,3.170813,32.13,2,S3
-21.0,-5.0,-61.0,22.65,0.120509,33.05,1,S4
-28.0,54.0,14.0,-6.69,4.386642,32.33,2,S3
-53.0,5.0,36.0,19.92,0.320079,32.43,4,S14
-53.0,5.0,36.0,0.75,0.3188,32.45,4,S14
-65.0,-3.0,0.0,-46.89,0.151209,32.95,4,S4
-63.0,1.0,16.0,-41.97,0.18063,31.47,4,S4
-56.0,7.0,32.0,-0.25,0.312404,31.71,4,S14
-63.0,-4.0,15.0,-25.68,0.401299,31.09,4,S3
-18.0,61.0,11.0,2.4,0.3188,31.89,3,S14
-49.0,-42.0,-10.0,17.57,0.285539,32.15,1,S14
-24.0,61.0,1.0,69.48,2.461245,32.55,2,S4
57.0,23.0,17.0,-41.52,0.177091,34.07,4,S2
-63.0,-3.0,15.0,-43.21,0.400018,31.09,4,S3
-19.0,-6.0,-61.0,29.01,0.121788,33.09,1,S4
-75.0,2.0,-1.0,5.13,0.350781,32.87,2,S14
-65.0,0.0,-4.0,-33.74,0.155047,32.77,4,S4
-65.0,0.0,-4.0,3.08,0.156326,32.79,4,S4
-32.0,55.0,9.0,-2.11,3.141344,32.13,2,S3
-33.0,-9.0,-55.0,-24.12,0.135859,32.91,1,S4
-46.0,45.0,10.0,1.2,0.34108,30.95,4,S3
54.0,11.0,-30.0,-16.61,0.142495,35.91,1,S2
-65.0,-2.0,-2.0,37.25,0.155047,32.87,4,S4
-53.0,4.0,36.0,-17.91,0.320079,32.45,4,S14
57.0,23.0,17.0,15.36,0.168121,34.33,4,S2
-10.0,20.0,34.0,-11.02,2.562299,32.61,2,S4
54.0,27.0,21.0,-25.68,0.510237,35.77,1,S2
51.0,31.0,24.0,-16.44,0.393636,35.83,1,S2
-68.0,-4.0,8.0,-11.77,1.307314,32.81,1,S3
-20.0,-7.0,-61.0,-25.51,0.123067,33.07,1,S4
-25.0,-59.0,-8.0,17.07,0.271468,32.27,1,S14
-18.0,-10.0,-60.0,-21.46,0.117951,33.07,1,S4
-17.0,61.0,14.0,-40.17,2.670055,32.39,2,S4
18.0,-59.0,12.0,-38.68,0.620431,33.79,2,S2
-64.0,13.0,-5.0,-16.79,0.448706,30.65,4,S3
-63.0,-6.0,15.0,17.15,2.002748,32.84,1,S3
57.0,22.0,18.0,-21.05,0.302661,33.68,4,S2
14.0,-59.0,17.0,33.31,1.0138,33.5,2,S2
-27.0,58.0,3.0,-13.54,1.965445,32.71,2,S4
-19.0,61.0,10.0,-97.58,2.646725,32.43,2,S4
-53.0,-5.0,36.0,4.83,2.784716,32.79,1,S3
-18.0,61.0,6.0,-5.56,0.313683,31.99,3,S14
-65.0,-2.0,11.0,17.84,0.33543,33.18,2,S14
22.0,-52.0,27.0,13.45,0.567931,33.16,1,S3
55.0,4.0,-48.0,-25.64,0.145057,35.91,1,S2
-34.0,54.0,-2.0,-102.33,1.586611,32.75,2,S4
15.0,-60.0,17.0,-37.54,1.011306,33.37,2,S2
-34.0,-6.0,-55.0,22.48,0.115392,33.11,1,S4
-31.0,-8.0,-57.0,-67.59,0.179351,32.89,1,S4
-53.0,7.0,36.0,7.67,0.321359,32.39,4,S14
-56.0,8.0,31.0,-6.91,0.313683,31.69,4,S14
-24.0,-48.0,-36.0,-13.27,0.298332,32.15,1,S14
-61.0,-19.0,-15.0,21.07,0.869026,33.27,1,S3
